{
	"resourceType": "Bundle",
	"type": "transaction",
	"entry": [
		{
			"fullUrl": "urn:uuid:79397e19-beac-40e0-ac1f-f1d4355930ed",
			"resource": {
				"resourceType": "MessageHeader",
				"id": "79397e19-beac-40e0-ac1f-f1d4355930ed",
				"text": {
					"status": "generated",
					"div": "<div xmlns='http://www.w3.org/1999/xhtml'>Message Header</div>"
				},
				"destination": [
					{
						"name": "Ona",
						"endpoint": "https://tbd.ona.opensrp"
					}
				],
				"source": {
					"name": "ThinkMD",
					"software": "ThinkMD",
					"version": "V4.01",
					"endpoint": "https://fhir.thinkmd.tech"
				},
				"eventCoding": {
					"system": "http://hl7.org/fhir/restful-interaction",
					"code": "batch"
				}
			},
			"request": {
				"method": "PUT",
				"url": "MessageHeader/79397e19-beac-40e0-ac1f-f1d4355930ed"
			}
		},
		{
			"fullUrl": "https://fhir.thinkmd.tech/Condition/respiratorydistress-b4a06597-325c-4278-8ac6-dbcf09c6cb93",
			"resource": {
				"resourceType": "Condition",
				"id": "respiratorydistress-b4a06597-325c-4278-8ac6-dbcf09c6cb93",
				"text": {
					"status": "generated",
					"div": "<div class='fhirCondition'><span>Condition</span> - <span>respiratory_distress</span> : <span>severe</span></div>"
				},
				"severity": {
					"coding": [
						{
							"system": "http://snomed.info/sct",
							"code": "24484000",
							"display": "severe"
						}
					]
				},
				"clinicalStatus": {
					"coding": [
						{
							"system": "http://terminology.hl7.org/CodeSystem/condition-clinical",
							"code": "active"
						}
					]
				},
				"verificationStatus": {
					"coding": [
						{
							"system": "http://terminology.hl7.org/CodeSystem/condition-ver-status",
							"code": "unconfirmed"
						}
					]
				},
				"code": {
					"coding": [
						{
							"system": "http://snomed.info/sct",
							"code": "50043002",
							"display": "respiratory_distress"
						}
					]
				},
				"onsetDateTime": "2020-12-09T18:13:53.693Z",
				"recordedDate": "2020-12-09T18:13:53.693Z",
				"encounter": {
					"reference": "Encounter/b4a06597-325c-4278-8ac6-dbcf09c6cb93"
				},
				"subject": {
					"reference": "Patient/ThinkMD-16c03e36-287e-4846-8c39-17dd5c351ae3"
				}
			},
			"request": {
				"method": "PUT",
				"url": "Condition/respiratorydistress-b4a06597-325c-4278-8ac6-dbcf09c6cb93"
			}
		},
		{
			"fullUrl": "https://fhir.thinkmd.tech/Condition/dehydration-b4a06597-325c-4278-8ac6-dbcf09c6cb93",
			"resource": {
				"resourceType": "Condition",
				"id": "dehydration-b4a06597-325c-4278-8ac6-dbcf09c6cb93",
				"text": {
					"status": "generated",
					"div": "<div class='fhirCondition'><span>Condition</span> - <span>dehydration</span> : <span>moderate</span></div>"
				},
				"severity": {
					"coding": [
						{
							"system": "http://snomed.info/sct",
							"code": "6736007",
							"display": "moderate"
						}
					]
				},
				"clinicalStatus": {
					"coding": [
						{
							"system": "http://terminology.hl7.org/CodeSystem/condition-clinical",
							"code": "active"
						}
					]
				},
				"verificationStatus": {
					"coding": [
						{
							"system": "http://terminology.hl7.org/CodeSystem/condition-ver-status",
							"code": "unconfirmed"
						}
					]
				},
				"code": {
					"coding": [
						{
							"system": "http://snomed.info/sct",
							"code": "34095006",
							"display": "dehydration"
						}
					]
				},
				"onsetDateTime": "2020-12-09T18:13:53.693Z",
				"recordedDate": "2020-12-09T18:13:53.693Z",
				"encounter": {
					"reference": "Encounter/b4a06597-325c-4278-8ac6-dbcf09c6cb93"
				},
				"subject": {
					"reference": "Patient/ThinkMD-16c03e36-287e-4846-8c39-17dd5c351ae3"
				}
			},
			"request": {
				"method": "PUT",
				"url": "Condition/dehydration-b4a06597-325c-4278-8ac6-dbcf09c6cb93"
			}
		},
		{
			"fullUrl": "https://fhir.thinkmd.tech/Condition/malnutrition-b4a06597-325c-4278-8ac6-dbcf09c6cb93",
			"resource": {
				"resourceType": "Condition",
				"id": "malnutrition-b4a06597-325c-4278-8ac6-dbcf09c6cb93",
				"text": {
					"status": "generated",
					"div": "<div class='fhirCondition'><span>Condition</span> - <span>malnutrition</span> : <span>severe</span></div>"
				},
				"severity": {
					"coding": [
						{
							"system": "http://snomed.info/sct",
							"code": "24484000",
							"display": "severe"
						}
					]
				},
				"clinicalStatus": {
					"coding": [
						{
							"system": "http://terminology.hl7.org/CodeSystem/condition-clinical",
							"code": "active"
						}
					]
				},
				"verificationStatus": {
					"coding": [
						{
							"system": "http://terminology.hl7.org/CodeSystem/condition-ver-status",
							"code": "unconfirmed"
						}
					]
				},
				"code": {
					"coding": [
						{
							"system": "http://snomed.info/sct",
							"code": "2492009",
							"display": "malnutrition"
						}
					]
				},
				"onsetDateTime": "2020-12-09T18:13:53.693Z",
				"recordedDate": "2020-12-09T18:13:53.693Z",
				"encounter": {
					"reference": "Encounter/b4a06597-325c-4278-8ac6-dbcf09c6cb93"
				},
				"subject": {
					"reference": "Patient/ThinkMD-16c03e36-287e-4846-8c39-17dd5c351ae3"
				}
			},
			"request": {
				"method": "PUT",
				"url": "Condition/malnutrition-b4a06597-325c-4278-8ac6-dbcf09c6cb93"
			}
		},
		{
			"fullUrl": "https://fhir.thinkmd.tech/Condition/measles-b4a06597-325c-4278-8ac6-dbcf09c6cb93",
			"resource": {
				"resourceType": "Condition",
				"id": "measles-b4a06597-325c-4278-8ac6-dbcf09c6cb93",
				"text": {
					"status": "generated",
					"div": "<div class='fhirCondition'><span>Condition</span> - <span>measles</span> : <span>none</span></div>"
				},
				"severity": {
					"coding": [
						{
							"system": "http://snomed.info/sct",
							"code": "none",
							"display": "none"
						}
					]
				},
				"clinicalStatus": {
					"coding": [
						{
							"system": "http://terminology.hl7.org/CodeSystem/condition-clinical",
							"code": "active"
						}
					]
				},
				"verificationStatus": {
					"coding": [
						{
							"system": "http://terminology.hl7.org/CodeSystem/condition-ver-status",
							"code": "unconfirmed"
						}
					]
				},
				"code": {
					"coding": [
						{
							"system": "http://snomed.info/sct",
							"code": "14189004",
							"display": "measles"
						}
					]
				},
				"onsetDateTime": "2020-12-09T18:13:53.693Z",
				"recordedDate": "2020-12-09T18:13:53.693Z",
				"encounter": {
					"reference": "Encounter/b4a06597-325c-4278-8ac6-dbcf09c6cb93"
				},
				"subject": {
					"reference": "Patient/ThinkMD-16c03e36-287e-4846-8c39-17dd5c351ae3"
				}
			},
			"request": {
				"method": "PUT",
				"url": "Condition/measles-b4a06597-325c-4278-8ac6-dbcf09c6cb93"
			}
		},
		{
			"fullUrl": "https://fhir.thinkmd.tech/Condition/malaria-b4a06597-325c-4278-8ac6-dbcf09c6cb93",
			"resource": {
				"resourceType": "Condition",
				"id": "malaria-b4a06597-325c-4278-8ac6-dbcf09c6cb93",
				"text": {
					"status": "generated",
					"div": "<div class='fhirCondition'><span>Condition</span> - <span>malaria</span> : <span>severe</span></div>"
				},
				"severity": {
					"coding": [
						{
							"system": "http://snomed.info/sct",
							"code": "24484000",
							"display": "severe"
						}
					]
				},
				"clinicalStatus": {
					"coding": [
						{
							"system": "http://terminology.hl7.org/CodeSystem/condition-clinical",
							"code": "active"
						}
					]
				},
				"verificationStatus": {
					"coding": [
						{
							"system": "http://terminology.hl7.org/CodeSystem/condition-ver-status",
							"code": "unconfirmed"
						}
					]
				},
				"code": {
					"coding": [
						{
							"system": "http://snomed.info/sct",
							"code": "61462000",
							"display": "malaria"
						}
					]
				},
				"onsetDateTime": "2020-12-09T18:13:53.693Z",
				"recordedDate": "2020-12-09T18:13:53.693Z",
				"encounter": {
					"reference": "Encounter/b4a06597-325c-4278-8ac6-dbcf09c6cb93"
				},
				"subject": {
					"reference": "Patient/ThinkMD-16c03e36-287e-4846-8c39-17dd5c351ae3"
				}
			},
			"request": {
				"method": "PUT",
				"url": "Condition/malaria-b4a06597-325c-4278-8ac6-dbcf09c6cb93"
			}
		},
		{
			"fullUrl": "https://fhir.thinkmd.tech/Condition/skininfection-b4a06597-325c-4278-8ac6-dbcf09c6cb93",
			"resource": {
				"resourceType": "Condition",
				"id": "skininfection-b4a06597-325c-4278-8ac6-dbcf09c6cb93",
				"text": {
					"status": "generated",
					"div": "<div class='fhirCondition'><span>Condition</span> - <span>skin_infection</span> : <span>none</span></div>"
				},
				"severity": {
					"coding": [
						{
							"system": "http://snomed.info/sct",
							"code": "none",
							"display": "none"
						}
					]
				},
				"clinicalStatus": {
					"coding": [
						{
							"system": "http://terminology.hl7.org/CodeSystem/condition-clinical",
							"code": "active"
						}
					]
				},
				"verificationStatus": {
					"coding": [
						{
							"system": "http://terminology.hl7.org/CodeSystem/condition-ver-status",
							"code": "unconfirmed"
						}
					]
				},
				"code": {
					"coding": [
						{
							"system": "http://snomed.info/sct",
							"code": "19824006",
							"display": "skin_infection"
						}
					]
				},
				"onsetDateTime": "2020-12-09T18:13:53.693Z",
				"recordedDate": "2020-12-09T18:13:53.693Z",
				"encounter": {
					"reference": "Encounter/b4a06597-325c-4278-8ac6-dbcf09c6cb93"
				},
				"subject": {
					"reference": "Patient/ThinkMD-16c03e36-287e-4846-8c39-17dd5c351ae3"
				}
			},
			"request": {
				"method": "PUT",
				"url": "Condition/skininfection-b4a06597-325c-4278-8ac6-dbcf09c6cb93"
			}
		},
		{
			"fullUrl": "https://fhir.thinkmd.tech/Condition/dysentery-b4a06597-325c-4278-8ac6-dbcf09c6cb93",
			"resource": {
				"resourceType": "Condition",
				"id": "dysentery-b4a06597-325c-4278-8ac6-dbcf09c6cb93",
				"text": {
					"status": "generated",
					"div": "<div class='fhirCondition'><span>Condition</span> - <span>dysentery</span> : <span>moderate</span></div>"
				},
				"severity": {
					"coding": [
						{
							"system": "http://snomed.info/sct",
							"code": "6736007",
							"display": "moderate"
						}
					]
				},
				"clinicalStatus": {
					"coding": [
						{
							"system": "http://terminology.hl7.org/CodeSystem/condition-clinical",
							"code": "active"
						}
					]
				},
				"verificationStatus": {
					"coding": [
						{
							"system": "http://terminology.hl7.org/CodeSystem/condition-ver-status",
							"code": "unconfirmed"
						}
					]
				},
				"code": {
					"coding": [
						{
							"system": "http://snomed.info/sct",
							"code": "46799006",
							"display": "dysentery"
						}
					]
				},
				"onsetDateTime": "2020-12-09T18:13:53.693Z",
				"recordedDate": "2020-12-09T18:13:53.693Z",
				"encounter": {
					"reference": "Encounter/b4a06597-325c-4278-8ac6-dbcf09c6cb93"
				},
				"subject": {
					"reference": "Patient/ThinkMD-16c03e36-287e-4846-8c39-17dd5c351ae3"
				}
			},
			"request": {
				"method": "PUT",
				"url": "Condition/dysentery-b4a06597-325c-4278-8ac6-dbcf09c6cb93"
			}
		},
		{
			"fullUrl": "https://fhir.thinkmd.tech/Condition/meningitis-b4a06597-325c-4278-8ac6-dbcf09c6cb93",
			"resource": {
				"resourceType": "Condition",
				"id": "meningitis-b4a06597-325c-4278-8ac6-dbcf09c6cb93",
				"text": {
					"status": "generated",
					"div": "<div class='fhirCondition'><span>Condition</span> - <span>meningitis</span> : <span>severe</span></div>"
				},
				"severity": {
					"coding": [
						{
							"system": "http://snomed.info/sct",
							"code": "24484000",
							"display": "severe"
						}
					]
				},
				"clinicalStatus": {
					"coding": [
						{
							"system": "http://terminology.hl7.org/CodeSystem/condition-clinical",
							"code": "active"
						}
					]
				},
				"verificationStatus": {
					"coding": [
						{
							"system": "http://terminology.hl7.org/CodeSystem/condition-ver-status",
							"code": "unconfirmed"
						}
					]
				},
				"code": {
					"coding": [
						{
							"system": "http://snomed.info/sct",
							"code": "7180009",
							"display": "meningitis"
						}
					]
				},
				"onsetDateTime": "2020-12-09T18:13:53.693Z",
				"recordedDate": "2020-12-09T18:13:53.693Z",
				"encounter": {
					"reference": "Encounter/b4a06597-325c-4278-8ac6-dbcf09c6cb93"
				},
				"subject": {
					"reference": "Patient/ThinkMD-16c03e36-287e-4846-8c39-17dd5c351ae3"
				}
			},
			"request": {
				"method": "PUT",
				"url": "Condition/meningitis-b4a06597-325c-4278-8ac6-dbcf09c6cb93"
			}
		},
		{
			"fullUrl": "https://fhir.thinkmd.tech/Condition/uti-b4a06597-325c-4278-8ac6-dbcf09c6cb93",
			"resource": {
				"resourceType": "Condition",
				"id": "uti-b4a06597-325c-4278-8ac6-dbcf09c6cb93",
				"text": {
					"status": "generated",
					"div": "<div class='fhirCondition'><span>Condition</span> - <span>uti</span> : <span>moderate</span></div>"
				},
				"severity": {
					"coding": [
						{
							"system": "http://snomed.info/sct",
							"code": "6736007",
							"display": "moderate"
						}
					]
				},
				"clinicalStatus": {
					"coding": [
						{
							"system": "http://terminology.hl7.org/CodeSystem/condition-clinical",
							"code": "active"
						}
					]
				},
				"verificationStatus": {
					"coding": [
						{
							"system": "http://terminology.hl7.org/CodeSystem/condition-ver-status",
							"code": "unconfirmed"
						}
					]
				},
				"code": {
					"coding": [
						{
							"system": "http://snomed.info/sct",
							"code": "68566005",
							"display": "uti"
						}
					]
				},
				"onsetDateTime": "2020-12-09T18:13:53.693Z",
				"recordedDate": "2020-12-09T18:13:53.693Z",
				"encounter": {
					"reference": "Encounter/b4a06597-325c-4278-8ac6-dbcf09c6cb93"
				},
				"subject": {
					"reference": "Patient/ThinkMD-16c03e36-287e-4846-8c39-17dd5c351ae3"
				}
			},
			"request": {
				"method": "PUT",
				"url": "Condition/uti-b4a06597-325c-4278-8ac6-dbcf09c6cb93"
			}
		},
		{
			"fullUrl": "https://fhir.thinkmd.tech/Condition/earinfection-b4a06597-325c-4278-8ac6-dbcf09c6cb93",
			"resource": {
				"resourceType": "Condition",
				"id": "earinfection-b4a06597-325c-4278-8ac6-dbcf09c6cb93",
				"text": {
					"status": "generated",
					"div": "<div class='fhirCondition'><span>Condition</span> - <span>ear_infection</span> : <span>moderate</span></div>"
				},
				"severity": {
					"coding": [
						{
							"system": "http://snomed.info/sct",
							"code": "6736007",
							"display": "moderate"
						}
					]
				},
				"clinicalStatus": {
					"coding": [
						{
							"system": "http://terminology.hl7.org/CodeSystem/condition-clinical",
							"code": "active"
						}
					]
				},
				"verificationStatus": {
					"coding": [
						{
							"system": "http://terminology.hl7.org/CodeSystem/condition-ver-status",
							"code": "unconfirmed"
						}
					]
				},
				"code": {
					"coding": [
						{
							"system": "http://snomed.info/sct",
							"code": "129127001",
							"display": "ear_infection"
						}
					]
				},
				"onsetDateTime": "2020-12-09T18:13:53.693Z",
				"recordedDate": "2020-12-09T18:13:53.693Z",
				"encounter": {
					"reference": "Encounter/b4a06597-325c-4278-8ac6-dbcf09c6cb93"
				},
				"subject": {
					"reference": "Patient/ThinkMD-16c03e36-287e-4846-8c39-17dd5c351ae3"
				}
			},
			"request": {
				"method": "PUT",
				"url": "Condition/earinfection-b4a06597-325c-4278-8ac6-dbcf09c6cb93"
			}
		},
		{
			"fullUrl": "https://fhir.thinkmd.tech/Condition/anemia-b4a06597-325c-4278-8ac6-dbcf09c6cb93",
			"resource": {
				"resourceType": "Condition",
				"id": "anemia-b4a06597-325c-4278-8ac6-dbcf09c6cb93",
				"text": {
					"status": "generated",
					"div": "<div class='fhirCondition'><span>Condition</span> - <span>anemia</span> : <span>moderate</span></div>"
				},
				"severity": {
					"coding": [
						{
							"system": "http://snomed.info/sct",
							"code": "6736007",
							"display": "moderate"
						}
					]
				},
				"clinicalStatus": {
					"coding": [
						{
							"system": "http://terminology.hl7.org/CodeSystem/condition-clinical",
							"code": "active"
						}
					]
				},
				"verificationStatus": {
					"coding": [
						{
							"system": "http://terminology.hl7.org/CodeSystem/condition-ver-status",
							"code": "unconfirmed"
						}
					]
				},
				"code": {
					"coding": [
						{
							"system": "http://snomed.info/sct",
							"code": "271737000",
							"display": "anemia"
						}
					]
				},
				"onsetDateTime": "2020-12-09T18:13:53.693Z",
				"recordedDate": "2020-12-09T18:13:53.693Z",
				"encounter": {
					"reference": "Encounter/b4a06597-325c-4278-8ac6-dbcf09c6cb93"
				},
				"subject": {
					"reference": "Patient/ThinkMD-16c03e36-287e-4846-8c39-17dd5c351ae3"
				}
			},
			"request": {
				"method": "PUT",
				"url": "Condition/anemia-b4a06597-325c-4278-8ac6-dbcf09c6cb93"
			}
		},
		{
			"fullUrl": "https://fhir.thinkmd.tech/Condition/boil-b4a06597-325c-4278-8ac6-dbcf09c6cb93",
			"resource": {
				"resourceType": "Condition",
				"id": "boil-b4a06597-325c-4278-8ac6-dbcf09c6cb93",
				"text": {
					"status": "generated",
					"div": "<div class='fhirCondition'><span>Condition</span> - <span>boil</span> : <span>mild</span></div>"
				},
				"severity": {
					"coding": [
						{
							"system": "http://snomed.info/sct",
							"code": "255604002",
							"display": "mild"
						}
					]
				},
				"clinicalStatus": {
					"coding": [
						{
							"system": "http://terminology.hl7.org/CodeSystem/condition-clinical",
							"code": "active"
						}
					]
				},
				"verificationStatus": {
					"coding": [
						{
							"system": "http://terminology.hl7.org/CodeSystem/condition-ver-status",
							"code": "unconfirmed"
						}
					]
				},
				"code": {
					"coding": [
						{
							"system": "http://snomed.info/sct",
							"code": "none",
							"display": "boil"
						}
					]
				},
				"onsetDateTime": "2020-12-09T18:13:53.693Z",
				"recordedDate": "2020-12-09T18:13:53.693Z",
				"encounter": {
					"reference": "Encounter/b4a06597-325c-4278-8ac6-dbcf09c6cb93"
				},
				"subject": {
					"reference": "Patient/ThinkMD-16c03e36-287e-4846-8c39-17dd5c351ae3"
				}
			},
			"request": {
				"method": "PUT",
				"url": "Condition/boil-b4a06597-325c-4278-8ac6-dbcf09c6cb93"
			}
		},
		{
			"fullUrl": "https://fhir.thinkmd.tech/Condition/impetigo-b4a06597-325c-4278-8ac6-dbcf09c6cb93",
			"resource": {
				"resourceType": "Condition",
				"id": "impetigo-b4a06597-325c-4278-8ac6-dbcf09c6cb93",
				"text": {
					"status": "generated",
					"div": "<div class='fhirCondition'><span>Condition</span> - <span>impetigo</span> : <span>mild</span></div>"
				},
				"severity": {
					"coding": [
						{
							"system": "http://snomed.info/sct",
							"code": "255604002",
							"display": "mild"
						}
					]
				},
				"clinicalStatus": {
					"coding": [
						{
							"system": "http://terminology.hl7.org/CodeSystem/condition-clinical",
							"code": "active"
						}
					]
				},
				"verificationStatus": {
					"coding": [
						{
							"system": "http://terminology.hl7.org/CodeSystem/condition-ver-status",
							"code": "unconfirmed"
						}
					]
				},
				"code": {
					"coding": [
						{
							"system": "http://snomed.info/sct",
							"code": "none",
							"display": "impetigo"
						}
					]
				},
				"onsetDateTime": "2020-12-09T18:13:53.693Z",
				"recordedDate": "2020-12-09T18:13:53.693Z",
				"encounter": {
					"reference": "Encounter/b4a06597-325c-4278-8ac6-dbcf09c6cb93"
				},
				"subject": {
					"reference": "Patient/ThinkMD-16c03e36-287e-4846-8c39-17dd5c351ae3"
				}
			},
			"request": {
				"method": "PUT",
				"url": "Condition/impetigo-b4a06597-325c-4278-8ac6-dbcf09c6cb93"
			}
		},
		{
			"fullUrl": "https://fhir.thinkmd.tech/Condition/febrileillness-b4a06597-325c-4278-8ac6-dbcf09c6cb93",
			"resource": {
				"resourceType": "Condition",
				"id": "febrileillness-b4a06597-325c-4278-8ac6-dbcf09c6cb93",
				"text": {
					"status": "generated",
					"div": "<div class='fhirCondition'><span>Condition</span> - <span>febrile_illness</span> : <span>moderate</span></div>"
				},
				"severity": {
					"coding": [
						{
							"system": "http://snomed.info/sct",
							"code": "6736007",
							"display": "moderate"
						}
					]
				},
				"clinicalStatus": {
					"coding": [
						{
							"system": "http://terminology.hl7.org/CodeSystem/condition-clinical",
							"code": "active"
						}
					]
				},
				"verificationStatus": {
					"coding": [
						{
							"system": "http://terminology.hl7.org/CodeSystem/condition-ver-status",
							"code": "unconfirmed"
						}
					]
				},
				"code": {
					"coding": [
						{
							"system": "http://snomed.info/sct",
							"code": "none",
							"display": "febrile_illness"
						}
					]
				},
				"onsetDateTime": "2020-12-09T18:13:53.693Z",
				"recordedDate": "2020-12-09T18:13:53.693Z",
				"encounter": {
					"reference": "Encounter/b4a06597-325c-4278-8ac6-dbcf09c6cb93"
				},
				"subject": {
					"reference": "Patient/ThinkMD-16c03e36-287e-4846-8c39-17dd5c351ae3"
				}
			},
			"request": {
				"method": "PUT",
				"url": "Condition/febrileillness-b4a06597-325c-4278-8ac6-dbcf09c6cb93"
			}
		},
		{
			"fullUrl": "https://fhir.thinkmd.tech/Condition/seizure-b4a06597-325c-4278-8ac6-dbcf09c6cb93",
			"resource": {
				"resourceType": "Condition",
				"id": "seizure-b4a06597-325c-4278-8ac6-dbcf09c6cb93",
				"text": {
					"status": "generated",
					"div": "<div class='fhirCondition'><span>Condition</span> - <span>seizure</span> : <span>severe</span></div>"
				},
				"severity": {
					"coding": [
						{
							"system": "http://snomed.info/sct",
							"code": "24484000",
							"display": "severe"
						}
					]
				},
				"clinicalStatus": {
					"coding": [
						{
							"system": "http://terminology.hl7.org/CodeSystem/condition-clinical",
							"code": "active"
						}
					]
				},
				"verificationStatus": {
					"coding": [
						{
							"system": "http://terminology.hl7.org/CodeSystem/condition-ver-status",
							"code": "unconfirmed"
						}
					]
				},
				"code": {
					"coding": [
						{
							"system": "http://snomed.info/sct",
							"code": "none",
							"display": "seizure"
						}
					]
				},
				"onsetDateTime": "2020-12-09T18:13:53.694Z",
				"recordedDate": "2020-12-09T18:13:53.694Z",
				"encounter": {
					"reference": "Encounter/b4a06597-325c-4278-8ac6-dbcf09c6cb93"
				},
				"subject": {
					"reference": "Patient/ThinkMD-16c03e36-287e-4846-8c39-17dd5c351ae3"
				}
			},
			"request": {
				"method": "PUT",
				"url": "Condition/seizure-b4a06597-325c-4278-8ac6-dbcf09c6cb93"
			}
		},
		{
			"fullUrl": "https://fhir.thinkmd.tech/Condition/asthma-b4a06597-325c-4278-8ac6-dbcf09c6cb93",
			"resource": {
				"resourceType": "Condition",
				"id": "asthma-b4a06597-325c-4278-8ac6-dbcf09c6cb93",
				"text": {
					"status": "generated",
					"div": "<div class='fhirCondition'><span>Condition</span> - <span>asthma</span> : <span>none</span></div>"
				},
				"severity": {
					"coding": [
						{
							"system": "http://snomed.info/sct",
							"code": "none",
							"display": "none"
						}
					]
				},
				"clinicalStatus": {
					"coding": [
						{
							"system": "http://terminology.hl7.org/CodeSystem/condition-clinical",
							"code": "active"
						}
					]
				},
				"verificationStatus": {
					"coding": [
						{
							"system": "http://terminology.hl7.org/CodeSystem/condition-ver-status",
							"code": "unconfirmed"
						}
					]
				},
				"code": {
					"coding": [
						{
							"system": "http://snomed.info/sct",
							"code": "none",
							"display": "asthma"
						}
					]
				},
				"onsetDateTime": "2020-12-09T18:13:53.694Z",
				"recordedDate": "2020-12-09T18:13:53.694Z",
				"encounter": {
					"reference": "Encounter/b4a06597-325c-4278-8ac6-dbcf09c6cb93"
				},
				"subject": {
					"reference": "Patient/ThinkMD-16c03e36-287e-4846-8c39-17dd5c351ae3"
				}
			},
			"request": {
				"method": "PUT",
				"url": "Condition/asthma-b4a06597-325c-4278-8ac6-dbcf09c6cb93"
			}
		},
		{
			"fullUrl": "https://fhir.thinkmd.tech/Condition/ringworm-b4a06597-325c-4278-8ac6-dbcf09c6cb93",
			"resource": {
				"resourceType": "Condition",
				"id": "ringworm-b4a06597-325c-4278-8ac6-dbcf09c6cb93",
				"text": {
					"status": "generated",
					"div": "<div class='fhirCondition'><span>Condition</span> - <span>ringworm</span> : <span>mild</span></div>"
				},
				"severity": {
					"coding": [
						{
							"system": "http://snomed.info/sct",
							"code": "255604002",
							"display": "mild"
						}
					]
				},
				"clinicalStatus": {
					"coding": [
						{
							"system": "http://terminology.hl7.org/CodeSystem/condition-clinical",
							"code": "active"
						}
					]
				},
				"verificationStatus": {
					"coding": [
						{
							"system": "http://terminology.hl7.org/CodeSystem/condition-ver-status",
							"code": "unconfirmed"
						}
					]
				},
				"code": {
					"coding": [
						{
							"system": "http://snomed.info/sct",
							"code": "none",
							"display": "ringworm"
						}
					]
				},
				"onsetDateTime": "2020-12-09T18:13:53.694Z",
				"recordedDate": "2020-12-09T18:13:53.694Z",
				"encounter": {
					"reference": "Encounter/b4a06597-325c-4278-8ac6-dbcf09c6cb93"
				},
				"subject": {
					"reference": "Patient/ThinkMD-16c03e36-287e-4846-8c39-17dd5c351ae3"
				}
			},
			"request": {
				"method": "PUT",
				"url": "Condition/ringworm-b4a06597-325c-4278-8ac6-dbcf09c6cb93"
			}
		},
		{
			"fullUrl": "https://fhir.thinkmd.tech/Condition/mumps-b4a06597-325c-4278-8ac6-dbcf09c6cb93",
			"resource": {
				"resourceType": "Condition",
				"id": "mumps-b4a06597-325c-4278-8ac6-dbcf09c6cb93",
				"text": {
					"status": "generated",
					"div": "<div class='fhirCondition'><span>Condition</span> - <span>mumps</span> : <span>moderate</span></div>"
				},
				"severity": {
					"coding": [
						{
							"system": "http://snomed.info/sct",
							"code": "6736007",
							"display": "moderate"
						}
					]
				},
				"clinicalStatus": {
					"coding": [
						{
							"system": "http://terminology.hl7.org/CodeSystem/condition-clinical",
							"code": "active"
						}
					]
				},
				"verificationStatus": {
					"coding": [
						{
							"system": "http://terminology.hl7.org/CodeSystem/condition-ver-status",
							"code": "unconfirmed"
						}
					]
				},
				"code": {
					"coding": [
						{
							"system": "http://snomed.info/sct",
							"code": "none",
							"display": "mumps"
						}
					]
				},
				"onsetDateTime": "2020-12-09T18:13:53.694Z",
				"recordedDate": "2020-12-09T18:13:53.694Z",
				"encounter": {
					"reference": "Encounter/b4a06597-325c-4278-8ac6-dbcf09c6cb93"
				},
				"subject": {
					"reference": "Patient/ThinkMD-16c03e36-287e-4846-8c39-17dd5c351ae3"
				}
			},
			"request": {
				"method": "PUT",
				"url": "Condition/mumps-b4a06597-325c-4278-8ac6-dbcf09c6cb93"
			}
		},
		{
			"fullUrl": "https://fhir.thinkmd.tech/Condition/strepthroat-b4a06597-325c-4278-8ac6-dbcf09c6cb93",
			"resource": {
				"resourceType": "Condition",
				"id": "strepthroat-b4a06597-325c-4278-8ac6-dbcf09c6cb93",
				"text": {
					"status": "generated",
					"div": "<div class='fhirCondition'><span>Condition</span> - <span>strep_throat</span> : <span>moderate</span></div>"
				},
				"severity": {
					"coding": [
						{
							"system": "http://snomed.info/sct",
							"code": "6736007",
							"display": "moderate"
						}
					]
				},
				"clinicalStatus": {
					"coding": [
						{
							"system": "http://terminology.hl7.org/CodeSystem/condition-clinical",
							"code": "active"
						}
					]
				},
				"verificationStatus": {
					"coding": [
						{
							"system": "http://terminology.hl7.org/CodeSystem/condition-ver-status",
							"code": "unconfirmed"
						}
					]
				},
				"code": {
					"coding": [
						{
							"system": "http://snomed.info/sct",
							"code": "none",
							"display": "strep_throat"
						}
					]
				},
				"onsetDateTime": "2020-12-09T18:13:53.694Z",
				"recordedDate": "2020-12-09T18:13:53.694Z",
				"encounter": {
					"reference": "Encounter/b4a06597-325c-4278-8ac6-dbcf09c6cb93"
				},
				"subject": {
					"reference": "Patient/ThinkMD-16c03e36-287e-4846-8c39-17dd5c351ae3"
				}
			},
			"request": {
				"method": "PUT",
				"url": "Condition/strepthroat-b4a06597-325c-4278-8ac6-dbcf09c6cb93"
			}
		},
		{
			"fullUrl": "https://fhir.thinkmd.tech/Condition/sinusinfection-b4a06597-325c-4278-8ac6-dbcf09c6cb93",
			"resource": {
				"resourceType": "Condition",
				"id": "sinusinfection-b4a06597-325c-4278-8ac6-dbcf09c6cb93",
				"text": {
					"status": "generated",
					"div": "<div class='fhirCondition'><span>Condition</span> - <span>sinus_infection</span> : <span>moderate</span></div>"
				},
				"severity": {
					"coding": [
						{
							"system": "http://snomed.info/sct",
							"code": "6736007",
							"display": "moderate"
						}
					]
				},
				"clinicalStatus": {
					"coding": [
						{
							"system": "http://terminology.hl7.org/CodeSystem/condition-clinical",
							"code": "active"
						}
					]
				},
				"verificationStatus": {
					"coding": [
						{
							"system": "http://terminology.hl7.org/CodeSystem/condition-ver-status",
							"code": "unconfirmed"
						}
					]
				},
				"code": {
					"coding": [
						{
							"system": "http://snomed.info/sct",
							"code": "none",
							"display": "sinus_infection"
						}
					]
				},
				"onsetDateTime": "2020-12-09T18:13:53.694Z",
				"recordedDate": "2020-12-09T18:13:53.694Z",
				"encounter": {
					"reference": "Encounter/b4a06597-325c-4278-8ac6-dbcf09c6cb93"
				},
				"subject": {
					"reference": "Patient/ThinkMD-16c03e36-287e-4846-8c39-17dd5c351ae3"
				}
			},
			"request": {
				"method": "PUT",
				"url": "Condition/sinusinfection-b4a06597-325c-4278-8ac6-dbcf09c6cb93"
			}
		},
		{
			"fullUrl": "https://fhir.thinkmd.tech/Condition/pyloricstenosis-b4a06597-325c-4278-8ac6-dbcf09c6cb93",
			"resource": {
				"resourceType": "Condition",
				"id": "pyloricstenosis-b4a06597-325c-4278-8ac6-dbcf09c6cb93",
				"text": {
					"status": "generated",
					"div": "<div class='fhirCondition'><span>Condition</span> - <span>pyloric_stenosis</span> : <span>none</span></div>"
				},
				"severity": {
					"coding": [
						{
							"system": "http://snomed.info/sct",
							"code": "none",
							"display": "none"
						}
					]
				},
				"clinicalStatus": {
					"coding": [
						{
							"system": "http://terminology.hl7.org/CodeSystem/condition-clinical",
							"code": "active"
						}
					]
				},
				"verificationStatus": {
					"coding": [
						{
							"system": "http://terminology.hl7.org/CodeSystem/condition-ver-status",
							"code": "unconfirmed"
						}
					]
				},
				"code": {
					"coding": [
						{
							"system": "http://snomed.info/sct",
							"code": "none",
							"display": "pyloric_stenosis"
						}
					]
				},
				"onsetDateTime": "2020-12-09T18:13:53.694Z",
				"recordedDate": "2020-12-09T18:13:53.694Z",
				"encounter": {
					"reference": "Encounter/b4a06597-325c-4278-8ac6-dbcf09c6cb93"
				},
				"subject": {
					"reference": "Patient/ThinkMD-16c03e36-287e-4846-8c39-17dd5c351ae3"
				}
			},
			"request": {
				"method": "PUT",
				"url": "Condition/pyloricstenosis-b4a06597-325c-4278-8ac6-dbcf09c6cb93"
			}
		},
		{
			"fullUrl": "https://fhir.thinkmd.tech/Condition/cholera-b4a06597-325c-4278-8ac6-dbcf09c6cb93",
			"resource": {
				"resourceType": "Condition",
				"id": "cholera-b4a06597-325c-4278-8ac6-dbcf09c6cb93",
				"text": {
					"status": "generated",
					"div": "<div class='fhirCondition'><span>Condition</span> - <span>cholera</span> : <span>none</span></div>"
				},
				"severity": {
					"coding": [
						{
							"system": "http://snomed.info/sct",
							"code": "none",
							"display": "none"
						}
					]
				},
				"clinicalStatus": {
					"coding": [
						{
							"system": "http://terminology.hl7.org/CodeSystem/condition-clinical",
							"code": "active"
						}
					]
				},
				"verificationStatus": {
					"coding": [
						{
							"system": "http://terminology.hl7.org/CodeSystem/condition-ver-status",
							"code": "unconfirmed"
						}
					]
				},
				"code": {
					"coding": [
						{
							"system": "http://snomed.info/sct",
							"code": "none",
							"display": "cholera"
						}
					]
				},
				"onsetDateTime": "2020-12-09T18:13:53.694Z",
				"recordedDate": "2020-12-09T18:13:53.694Z",
				"encounter": {
					"reference": "Encounter/b4a06597-325c-4278-8ac6-dbcf09c6cb93"
				},
				"subject": {
					"reference": "Patient/ThinkMD-16c03e36-287e-4846-8c39-17dd5c351ae3"
				}
			},
			"request": {
				"method": "PUT",
				"url": "Condition/cholera-b4a06597-325c-4278-8ac6-dbcf09c6cb93"
			}
		},
		{
			"fullUrl": "https://fhir.thinkmd.tech/Condition/diarrhea-b4a06597-325c-4278-8ac6-dbcf09c6cb93",
			"resource": {
				"resourceType": "Condition",
				"id": "diarrhea-b4a06597-325c-4278-8ac6-dbcf09c6cb93",
				"text": {
					"status": "generated",
					"div": "<div class='fhirCondition'><span>Condition</span> - <span>diarrhea</span> : <span>mild</span></div>"
				},
				"severity": {
					"coding": [
						{
							"system": "http://snomed.info/sct",
							"code": "255604002",
							"display": "mild"
						}
					]
				},
				"clinicalStatus": {
					"coding": [
						{
							"system": "http://terminology.hl7.org/CodeSystem/condition-clinical",
							"code": "active"
						}
					]
				},
				"verificationStatus": {
					"coding": [
						{
							"system": "http://terminology.hl7.org/CodeSystem/condition-ver-status",
							"code": "unconfirmed"
						}
					]
				},
				"code": {
					"coding": [
						{
							"system": "http://snomed.info/sct",
							"code": "none",
							"display": "diarrhea"
						}
					]
				},
				"onsetDateTime": "2020-12-09T18:13:53.694Z",
				"recordedDate": "2020-12-09T18:13:53.694Z",
				"encounter": {
					"reference": "Encounter/b4a06597-325c-4278-8ac6-dbcf09c6cb93"
				},
				"subject": {
					"reference": "Patient/ThinkMD-16c03e36-287e-4846-8c39-17dd5c351ae3"
				}
			},
			"request": {
				"method": "PUT",
				"url": "Condition/diarrhea-b4a06597-325c-4278-8ac6-dbcf09c6cb93"
			}
		},
		{
			"fullUrl": "https://fhir.thinkmd.tech/Condition/chickenpox-b4a06597-325c-4278-8ac6-dbcf09c6cb93",
			"resource": {
				"resourceType": "Condition",
				"id": "chickenpox-b4a06597-325c-4278-8ac6-dbcf09c6cb93",
				"text": {
					"status": "generated",
					"div": "<div class='fhirCondition'><span>Condition</span> - <span>chicken_pox</span> : <span>moderate</span></div>"
				},
				"severity": {
					"coding": [
						{
							"system": "http://snomed.info/sct",
							"code": "6736007",
							"display": "moderate"
						}
					]
				},
				"clinicalStatus": {
					"coding": [
						{
							"system": "http://terminology.hl7.org/CodeSystem/condition-clinical",
							"code": "active"
						}
					]
				},
				"verificationStatus": {
					"coding": [
						{
							"system": "http://terminology.hl7.org/CodeSystem/condition-ver-status",
							"code": "unconfirmed"
						}
					]
				},
				"code": {
					"coding": [
						{
							"system": "http://snomed.info/sct",
							"code": "none",
							"display": "chicken_pox"
						}
					]
				},
				"onsetDateTime": "2020-12-09T18:13:53.694Z",
				"recordedDate": "2020-12-09T18:13:53.694Z",
				"encounter": {
					"reference": "Encounter/b4a06597-325c-4278-8ac6-dbcf09c6cb93"
				},
				"subject": {
					"reference": "Patient/ThinkMD-16c03e36-287e-4846-8c39-17dd5c351ae3"
				}
			},
			"request": {
				"method": "PUT",
				"url": "Condition/chickenpox-b4a06597-325c-4278-8ac6-dbcf09c6cb93"
			}
		},
		{
			"fullUrl": "https://fhir.thinkmd.tech/Condition/intestinalobstruction-b4a06597-325c-4278-8ac6-dbcf09c6cb93",
			"resource": {
				"resourceType": "Condition",
				"id": "intestinalobstruction-b4a06597-325c-4278-8ac6-dbcf09c6cb93",
				"text": {
					"status": "generated",
					"div": "<div class='fhirCondition'><span>Condition</span> - <span>intestinal_obstruction</span> : <span>none</span></div>"
				},
				"severity": {
					"coding": [
						{
							"system": "http://snomed.info/sct",
							"code": "none",
							"display": "none"
						}
					]
				},
				"clinicalStatus": {
					"coding": [
						{
							"system": "http://terminology.hl7.org/CodeSystem/condition-clinical",
							"code": "active"
						}
					]
				},
				"verificationStatus": {
					"coding": [
						{
							"system": "http://terminology.hl7.org/CodeSystem/condition-ver-status",
							"code": "unconfirmed"
						}
					]
				},
				"code": {
					"coding": [
						{
							"system": "http://snomed.info/sct",
							"code": "none",
							"display": "intestinal_obstruction"
						}
					]
				},
				"onsetDateTime": "2020-12-09T18:13:53.694Z",
				"recordedDate": "2020-12-09T18:13:53.694Z",
				"encounter": {
					"reference": "Encounter/b4a06597-325c-4278-8ac6-dbcf09c6cb93"
				},
				"subject": {
					"reference": "Patient/ThinkMD-16c03e36-287e-4846-8c39-17dd5c351ae3"
				}
			},
			"request": {
				"method": "PUT",
				"url": "Condition/intestinalobstruction-b4a06597-325c-4278-8ac6-dbcf09c6cb93"
			}
		},
		{
			"fullUrl": "https://fhir.thinkmd.tech/Condition/mentalstatus-b4a06597-325c-4278-8ac6-dbcf09c6cb93",
			"resource": {
				"resourceType": "Condition",
				"id": "mentalstatus-b4a06597-325c-4278-8ac6-dbcf09c6cb93",
				"text": {
					"status": "generated",
					"div": "<div class='fhirCondition'><span>Condition</span> - <span>mental_status</span> : <span>none</span></div>"
				},
				"severity": {
					"coding": [
						{
							"system": "http://snomed.info/sct",
							"code": "none",
							"display": "none"
						}
					]
				},
				"clinicalStatus": {
					"coding": [
						{
							"system": "http://terminology.hl7.org/CodeSystem/condition-clinical",
							"code": "active"
						}
					]
				},
				"verificationStatus": {
					"coding": [
						{
							"system": "http://terminology.hl7.org/CodeSystem/condition-ver-status",
							"code": "unconfirmed"
						}
					]
				},
				"code": {
					"coding": [
						{
							"system": "http://snomed.info/sct",
							"code": "none",
							"display": "mental_status"
						}
					]
				},
				"onsetDateTime": "2020-12-09T18:13:53.694Z",
				"recordedDate": "2020-12-09T18:13:53.694Z",
				"encounter": {
					"reference": "Encounter/b4a06597-325c-4278-8ac6-dbcf09c6cb93"
				},
				"subject": {
					"reference": "Patient/ThinkMD-16c03e36-287e-4846-8c39-17dd5c351ae3"
				}
			},
			"request": {
				"method": "PUT",
				"url": "Condition/mentalstatus-b4a06597-325c-4278-8ac6-dbcf09c6cb93"
			}
		},
		{
			"fullUrl": "https://fhir.thinkmd.tech/Condition/eyeinfection-b4a06597-325c-4278-8ac6-dbcf09c6cb93",
			"resource": {
				"resourceType": "Condition",
				"id": "eyeinfection-b4a06597-325c-4278-8ac6-dbcf09c6cb93",
				"text": {
					"status": "generated",
					"div": "<div class='fhirCondition'><span>Condition</span> - <span>eye_infection</span> : <span>none</span></div>"
				},
				"severity": {
					"coding": [
						{
							"system": "http://snomed.info/sct",
							"code": "none",
							"display": "none"
						}
					]
				},
				"clinicalStatus": {
					"coding": [
						{
							"system": "http://terminology.hl7.org/CodeSystem/condition-clinical",
							"code": "active"
						}
					]
				},
				"verificationStatus": {
					"coding": [
						{
							"system": "http://terminology.hl7.org/CodeSystem/condition-ver-status",
							"code": "unconfirmed"
						}
					]
				},
				"code": {
					"coding": [
						{
							"system": "http://snomed.info/sct",
							"code": "none",
							"display": "eye_infection"
						}
					]
				},
				"onsetDateTime": "2020-12-09T18:13:53.694Z",
				"recordedDate": "2020-12-09T18:13:53.694Z",
				"encounter": {
					"reference": "Encounter/b4a06597-325c-4278-8ac6-dbcf09c6cb93"
				},
				"subject": {
					"reference": "Patient/ThinkMD-16c03e36-287e-4846-8c39-17dd5c351ae3"
				}
			},
			"request": {
				"method": "PUT",
				"url": "Condition/eyeinfection-b4a06597-325c-4278-8ac6-dbcf09c6cb93"
			}
		},
		{
			"fullUrl": "https://fhir.thinkmd.tech/Condition/feedingproblems-b4a06597-325c-4278-8ac6-dbcf09c6cb93",
			"resource": {
				"resourceType": "Condition",
				"id": "feedingproblems-b4a06597-325c-4278-8ac6-dbcf09c6cb93",
				"text": {
					"status": "generated",
					"div": "<div class='fhirCondition'><span>Condition</span> - <span>feeding_problems</span> : <span>none</span></div>"
				},
				"severity": {
					"coding": [
						{
							"system": "http://snomed.info/sct",
							"code": "none",
							"display": "none"
						}
					]
				},
				"clinicalStatus": {
					"coding": [
						{
							"system": "http://terminology.hl7.org/CodeSystem/condition-clinical",
							"code": "active"
						}
					]
				},
				"verificationStatus": {
					"coding": [
						{
							"system": "http://terminology.hl7.org/CodeSystem/condition-ver-status",
							"code": "unconfirmed"
						}
					]
				},
				"code": {
					"coding": [
						{
							"system": "http://snomed.info/sct",
							"code": "none",
							"display": "feeding_problems"
						}
					]
				},
				"onsetDateTime": "2020-12-09T18:13:53.694Z",
				"recordedDate": "2020-12-09T18:13:53.694Z",
				"encounter": {
					"reference": "Encounter/b4a06597-325c-4278-8ac6-dbcf09c6cb93"
				},
				"subject": {
					"reference": "Patient/ThinkMD-16c03e36-287e-4846-8c39-17dd5c351ae3"
				}
			},
			"request": {
				"method": "PUT",
				"url": "Condition/feedingproblems-b4a06597-325c-4278-8ac6-dbcf09c6cb93"
			}
		},
		{
			"fullUrl": "https://fhir.thinkmd.tech/Observation/gender-b4a06597-325c-4278-8ac6-dbcf09c6cb93",
			"resource": {
				"resourceType": "Observation",
				"id": "gender-b4a06597-325c-4278-8ac6-dbcf09c6cb93",
				"text": {
					"div": "<div class='fhirObservation'><span>Observation</span> - <span>gender</span> : <span>male</span></div>",
					"status": "additional"
				},
				"effectiveDateTime": "2020-12-09T18:14:37.463Z",
				"code": {
					"coding": [
						{
							"system": "http://snomed.info/sct",
							"code": "429019009",
							"display": "Sex"
						}
					]
				},
				"status": "preliminary",
				"valueCodeableConcept": {
					"coding": [
						{
							"system": "http://snomed.info/sct",
							"code": "248153007",
							"display": "male"
						}
					]
				},
				"subject": {
					"reference": "Patient/ThinkMD-16c03e36-287e-4846-8c39-17dd5c351ae3"
				},
				"performer": [
					{
						"reference": "Practitioner/123"
					}
				],
				"encounter": {
					"reference": "Encounter/b4a06597-325c-4278-8ac6-dbcf09c6cb93"
				}
			},
			"request": {
				"method": "PUT",
				"url": "Observation/gender-b4a06597-325c-4278-8ac6-dbcf09c6cb93"
			}
		},
		{
			"fullUrl": "https://fhir.thinkmd.tech/Observation/traveltomalariazone-b4a06597-325c-4278-8ac6-dbcf09c6cb93",
			"resource": {
				"resourceType": "Observation",
				"id": "traveltomalariazone-b4a06597-325c-4278-8ac6-dbcf09c6cb93",
				"text": {
					"div": "<div class='fhirObservation'><span>Observation</span> - <span>travel_to_malaria_zone</span> : <span>yes</span></div>",
					"status": "additional"
				},
				"effectiveDateTime": "2020-12-09T18:14:37.463Z",
				"code": {
					"coding": [
						{
							"system": "http://hl7.org/fhir/sid/icd-10-cm",
							"code": "Z779",
							"display": "travel to malaria zone"
						}
					]
				},
				"status": "preliminary",
				"valueCodeableConcept": {
					"coding": [
						{
							"system": "https://fhir.loinc.org/ValueSet/LL3044-6",
							"code": "Y",
							"display": "yes"
						}
					]
				},
				"subject": {
					"reference": "Patient/ThinkMD-16c03e36-287e-4846-8c39-17dd5c351ae3"
				},
				"performer": [
					{
						"reference": "Practitioner/123"
					}
				],
				"encounter": {
					"reference": "Encounter/b4a06597-325c-4278-8ac6-dbcf09c6cb93"
				}
			},
			"request": {
				"method": "PUT",
				"url": "Observation/traveltomalariazone-b4a06597-325c-4278-8ac6-dbcf09c6cb93"
			}
		},
		{
			"fullUrl": "https://fhir.thinkmd.tech/Observation/coldchills-b4a06597-325c-4278-8ac6-dbcf09c6cb93",
			"resource": {
				"resourceType": "Observation",
				"id": "coldchills-b4a06597-325c-4278-8ac6-dbcf09c6cb93",
				"text": {
					"div": "<div class='fhirObservation'><span>Observation</span> - <span>cold_chills</span> : <span>no</span></div>",
					"status": "additional"
				},
				"effectiveDateTime": "2020-12-09T18:14:37.463Z",
				"code": {
					"coding": [
						{
							"system": "http://snomed.info/sct",
							"code": "43724002",
							"display": "Chill"
						}
					]
				},
				"status": "preliminary",
				"valueCodeableConcept": {
					"coding": [
						{
							"system": "https://fhir.loinc.org/ValueSet/LL3044-6",
							"code": "N",
							"display": "no"
						}
					]
				},
				"subject": {
					"reference": "Patient/ThinkMD-16c03e36-287e-4846-8c39-17dd5c351ae3"
				},
				"performer": [
					{
						"reference": "Practitioner/123"
					}
				],
				"encounter": {
					"reference": "Encounter/b4a06597-325c-4278-8ac6-dbcf09c6cb93"
				}
			},
			"request": {
				"method": "PUT",
				"url": "Observation/coldchills-b4a06597-325c-4278-8ac6-dbcf09c6cb93"
			}
		},
		{
			"fullUrl": "https://fhir.thinkmd.tech/Observation/tired-b4a06597-325c-4278-8ac6-dbcf09c6cb93",
			"resource": {
				"resourceType": "Observation",
				"id": "tired-b4a06597-325c-4278-8ac6-dbcf09c6cb93",
				"text": {
					"div": "<div class='fhirObservation'><span>Observation</span> - <span>tired</span> : <span>no</span></div>",
					"status": "additional"
				},
				"effectiveDateTime": "2020-12-09T18:14:37.463Z",
				"code": {
					"coding": [
						{
							"system": "http://snomed.info/sct",
							"code": "224960004",
							"display": "Tired"
						}
					]
				},
				"status": "preliminary",
				"valueCodeableConcept": {
					"coding": [
						{
							"system": "https://fhir.loinc.org/ValueSet/LL3044-6",
							"code": "N",
							"display": "no"
						}
					]
				},
				"subject": {
					"reference": "Patient/ThinkMD-16c03e36-287e-4846-8c39-17dd5c351ae3"
				},
				"performer": [
					{
						"reference": "Practitioner/123"
					}
				],
				"encounter": {
					"reference": "Encounter/b4a06597-325c-4278-8ac6-dbcf09c6cb93"
				}
			},
			"request": {
				"method": "PUT",
				"url": "Observation/tired-b4a06597-325c-4278-8ac6-dbcf09c6cb93"
			}
		},
		{
			"fullUrl": "https://fhir.thinkmd.tech/Observation/aching-b4a06597-325c-4278-8ac6-dbcf09c6cb93",
			"resource": {
				"resourceType": "Observation",
				"id": "aching-b4a06597-325c-4278-8ac6-dbcf09c6cb93",
				"text": {
					"div": "<div class='fhirObservation'><span>Observation</span> - <span>aching</span> : <span>no</span></div>",
					"status": "additional"
				},
				"effectiveDateTime": "2020-12-09T18:14:37.463Z",
				"code": {
					"coding": [
						{
							"system": "http://snomed.info/sct",
							"code": "27635008",
							"display": "Aching"
						}
					]
				},
				"status": "preliminary",
				"valueCodeableConcept": {
					"coding": [
						{
							"system": "https://fhir.loinc.org/ValueSet/LL3044-6",
							"code": "N",
							"display": "no"
						}
					]
				},
				"subject": {
					"reference": "Patient/ThinkMD-16c03e36-287e-4846-8c39-17dd5c351ae3"
				},
				"performer": [
					{
						"reference": "Practitioner/123"
					}
				],
				"encounter": {
					"reference": "Encounter/b4a06597-325c-4278-8ac6-dbcf09c6cb93"
				}
			},
			"request": {
				"method": "PUT",
				"url": "Observation/aching-b4a06597-325c-4278-8ac6-dbcf09c6cb93"
			}
		},
		{
			"fullUrl": "https://fhir.thinkmd.tech/Observation/headache-b4a06597-325c-4278-8ac6-dbcf09c6cb93",
			"resource": {
				"resourceType": "Observation",
				"id": "headache-b4a06597-325c-4278-8ac6-dbcf09c6cb93",
				"text": {
					"div": "<div class='fhirObservation'><span>Observation</span> - <span>headache</span> : <span>no</span></div>",
					"status": "additional"
				},
				"effectiveDateTime": "2020-12-09T18:14:37.463Z",
				"code": {
					"coding": [
						{
							"system": "http://snomed.info/sct",
							"code": "25064002",
							"display": "Headache"
						}
					]
				},
				"status": "preliminary",
				"valueCodeableConcept": {
					"coding": [
						{
							"system": "https://fhir.loinc.org/ValueSet/LL3044-6",
							"code": "N",
							"display": "no"
						}
					]
				},
				"subject": {
					"reference": "Patient/ThinkMD-16c03e36-287e-4846-8c39-17dd5c351ae3"
				},
				"performer": [
					{
						"reference": "Practitioner/123"
					}
				],
				"encounter": {
					"reference": "Encounter/b4a06597-325c-4278-8ac6-dbcf09c6cb93"
				}
			},
			"request": {
				"method": "PUT",
				"url": "Observation/headache-b4a06597-325c-4278-8ac6-dbcf09c6cb93"
			}
		},
		{
			"fullUrl": "https://fhir.thinkmd.tech/Observation/painwhenurinating-b4a06597-325c-4278-8ac6-dbcf09c6cb93",
			"resource": {
				"resourceType": "Observation",
				"id": "painwhenurinating-b4a06597-325c-4278-8ac6-dbcf09c6cb93",
				"text": {
					"div": "<div class='fhirObservation'><span>Observation</span> - <span>pain_when_urinating</span> : <span>yes</span></div>",
					"status": "additional"
				},
				"effectiveDateTime": "2020-12-09T18:14:37.463Z",
				"code": {
					"coding": [
						{
							"system": "http://snomed.info/sct",
							"code": "49650001",
							"display": "Dysuria"
						}
					]
				},
				"status": "preliminary",
				"valueCodeableConcept": {
					"coding": [
						{
							"system": "https://fhir.loinc.org/ValueSet/LL3044-6",
							"code": "Y",
							"display": "yes"
						}
					]
				},
				"subject": {
					"reference": "Patient/ThinkMD-16c03e36-287e-4846-8c39-17dd5c351ae3"
				},
				"performer": [
					{
						"reference": "Practitioner/123"
					}
				],
				"encounter": {
					"reference": "Encounter/b4a06597-325c-4278-8ac6-dbcf09c6cb93"
				}
			},
			"request": {
				"method": "PUT",
				"url": "Observation/painwhenurinating-b4a06597-325c-4278-8ac6-dbcf09c6cb93"
			}
		},
		{
			"fullUrl": "https://fhir.thinkmd.tech/Observation/sick-b4a06597-325c-4278-8ac6-dbcf09c6cb93",
			"resource": {
				"resourceType": "Observation",
				"id": "sick-b4a06597-325c-4278-8ac6-dbcf09c6cb93",
				"text": {
					"div": "<div class='fhirObservation'><span>Observation</span> - <span>sick</span> : <span>yes</span></div>",
					"status": "additional"
				},
				"effectiveDateTime": "2020-12-09T18:14:37.463Z",
				"code": {
					"coding": [
						{
							"system": "http://snomed.info/sct",
							"code": "275142008",
							"display": "Sick child"
						}
					]
				},
				"status": "preliminary",
				"valueCodeableConcept": {
					"coding": [
						{
							"system": "https://fhir.loinc.org/ValueSet/LL3044-6",
							"code": "Y",
							"display": "yes"
						}
					]
				},
				"subject": {
					"reference": "Patient/ThinkMD-16c03e36-287e-4846-8c39-17dd5c351ae3"
				},
				"performer": [
					{
						"reference": "Practitioner/123"
					}
				],
				"encounter": {
					"reference": "Encounter/b4a06597-325c-4278-8ac6-dbcf09c6cb93"
				}
			},
			"request": {
				"method": "PUT",
				"url": "Observation/sick-b4a06597-325c-4278-8ac6-dbcf09c6cb93"
			}
		},
		{
			"fullUrl": "https://fhir.thinkmd.tech/Observation/seizure-b4a06597-325c-4278-8ac6-dbcf09c6cb93",
			"resource": {
				"resourceType": "Observation",
				"id": "seizure-b4a06597-325c-4278-8ac6-dbcf09c6cb93",
				"text": {
					"div": "<div class='fhirObservation'><span>Observation</span> - <span>seizure</span> : <span>yes</span></div>",
					"status": "additional"
				},
				"effectiveDateTime": "2020-12-09T18:14:37.463Z",
				"code": {
					"coding": [
						{
							"system": "http://snomed.info/sct",
							"code": "91175000",
							"display": "Seizure"
						}
					]
				},
				"status": "preliminary",
				"valueCodeableConcept": {
					"coding": [
						{
							"system": "https://fhir.loinc.org/ValueSet/LL3044-6",
							"code": "Y",
							"display": "yes"
						}
					]
				},
				"subject": {
					"reference": "Patient/ThinkMD-16c03e36-287e-4846-8c39-17dd5c351ae3"
				},
				"performer": [
					{
						"reference": "Practitioner/123"
					}
				],
				"encounter": {
					"reference": "Encounter/b4a06597-325c-4278-8ac6-dbcf09c6cb93"
				}
			},
			"request": {
				"method": "PUT",
				"url": "Observation/seizure-b4a06597-325c-4278-8ac6-dbcf09c6cb93"
			}
		},
		{
			"fullUrl": "https://fhir.thinkmd.tech/Observation/bloodystools-b4a06597-325c-4278-8ac6-dbcf09c6cb93",
			"resource": {
				"resourceType": "Observation",
				"id": "bloodystools-b4a06597-325c-4278-8ac6-dbcf09c6cb93",
				"text": {
					"div": "<div class='fhirObservation'><span>Observation</span> - <span>bloody_stools</span> : <span>yes</span></div>",
					"status": "additional"
				},
				"effectiveDateTime": "2020-12-09T18:14:37.463Z",
				"code": {
					"coding": [
						{
							"system": "http://snomed.info/sct",
							"code": "300392005",
							"display": "Stool flecked with blood"
						}
					]
				},
				"status": "preliminary",
				"valueCodeableConcept": {
					"coding": [
						{
							"system": "https://fhir.loinc.org/ValueSet/LL3044-6",
							"code": "Y",
							"display": "yes"
						}
					]
				},
				"subject": {
					"reference": "Patient/ThinkMD-16c03e36-287e-4846-8c39-17dd5c351ae3"
				},
				"performer": [
					{
						"reference": "Practitioner/123"
					}
				],
				"encounter": {
					"reference": "Encounter/b4a06597-325c-4278-8ac6-dbcf09c6cb93"
				}
			},
			"request": {
				"method": "PUT",
				"url": "Observation/bloodystools-b4a06597-325c-4278-8ac6-dbcf09c6cb93"
			}
		},
		{
			"fullUrl": "https://fhir.thinkmd.tech/Observation/earpain-b4a06597-325c-4278-8ac6-dbcf09c6cb93",
			"resource": {
				"resourceType": "Observation",
				"id": "earpain-b4a06597-325c-4278-8ac6-dbcf09c6cb93",
				"text": {
					"div": "<div class='fhirObservation'><span>Observation</span> - <span>ear_pain</span> : <span>yes</span></div>",
					"status": "additional"
				},
				"effectiveDateTime": "2020-12-09T18:14:37.463Z",
				"code": {
					"coding": [
						{
							"system": "http://snomed.info/sct",
							"code": "301354004",
							"display": "Pain of ear structure"
						}
					]
				},
				"status": "preliminary",
				"valueCodeableConcept": {
					"coding": [
						{
							"system": "https://fhir.loinc.org/ValueSet/LL3044-6",
							"code": "Y",
							"display": "yes"
						}
					]
				},
				"subject": {
					"reference": "Patient/ThinkMD-16c03e36-287e-4846-8c39-17dd5c351ae3"
				},
				"performer": [
					{
						"reference": "Practitioner/123"
					}
				],
				"encounter": {
					"reference": "Encounter/b4a06597-325c-4278-8ac6-dbcf09c6cb93"
				}
			},
			"request": {
				"method": "PUT",
				"url": "Observation/earpain-b4a06597-325c-4278-8ac6-dbcf09c6cb93"
			}
		},
		{
			"fullUrl": "https://fhir.thinkmd.tech/Observation/fever-b4a06597-325c-4278-8ac6-dbcf09c6cb93",
			"resource": {
				"resourceType": "Observation",
				"id": "fever-b4a06597-325c-4278-8ac6-dbcf09c6cb93",
				"text": {
					"div": "<div class='fhirObservation'><span>Observation</span> - <span>fever</span> : <span>yes</span></div>",
					"status": "additional"
				},
				"effectiveDateTime": "2020-12-09T18:14:37.463Z",
				"code": {
					"coding": [
						{
							"system": "http://snomed.info/sct",
							"code": "386661006",
							"display": "Fever"
						}
					]
				},
				"status": "preliminary",
				"valueCodeableConcept": {
					"coding": [
						{
							"system": "https://fhir.loinc.org/ValueSet/LL3044-6",
							"code": "Y",
							"display": "yes"
						}
					]
				},
				"subject": {
					"reference": "Patient/ThinkMD-16c03e36-287e-4846-8c39-17dd5c351ae3"
				},
				"performer": [
					{
						"reference": "Practitioner/123"
					}
				],
				"encounter": {
					"reference": "Encounter/b4a06597-325c-4278-8ac6-dbcf09c6cb93"
				}
			},
			"request": {
				"method": "PUT",
				"url": "Observation/fever-b4a06597-325c-4278-8ac6-dbcf09c6cb93"
			}
		},
		{
			"fullUrl": "https://fhir.thinkmd.tech/Observation/foulsmellingurine-b4a06597-325c-4278-8ac6-dbcf09c6cb93",
			"resource": {
				"resourceType": "Observation",
				"id": "foulsmellingurine-b4a06597-325c-4278-8ac6-dbcf09c6cb93",
				"text": {
					"div": "<div class='fhirObservation'><span>Observation</span> - <span>foul_smelling_urine</span> : <span>yes</span></div>",
					"status": "additional"
				},
				"effectiveDateTime": "2020-12-09T18:14:37.463Z",
				"code": {
					"coding": [
						{
							"system": "http://snomed.info/sct",
							"code": "690701000119101",
							"display": "Foul smelling urine"
						}
					]
				},
				"status": "preliminary",
				"valueCodeableConcept": {
					"coding": [
						{
							"system": "https://fhir.loinc.org/ValueSet/LL3044-6",
							"code": "Y",
							"display": "yes"
						}
					]
				},
				"subject": {
					"reference": "Patient/ThinkMD-16c03e36-287e-4846-8c39-17dd5c351ae3"
				},
				"performer": [
					{
						"reference": "Practitioner/123"
					}
				],
				"encounter": {
					"reference": "Encounter/b4a06597-325c-4278-8ac6-dbcf09c6cb93"
				}
			},
			"request": {
				"method": "PUT",
				"url": "Observation/foulsmellingurine-b4a06597-325c-4278-8ac6-dbcf09c6cb93"
			}
		},
		{
			"fullUrl": "https://fhir.thinkmd.tech/Observation/sleeping-b4a06597-325c-4278-8ac6-dbcf09c6cb93",
			"resource": {
				"resourceType": "Observation",
				"id": "sleeping-b4a06597-325c-4278-8ac6-dbcf09c6cb93",
				"text": {
					"div": "<div class='fhirObservation'><span>Observation</span> - <span>sleeping</span> : <span>more</span></div>",
					"status": "additional"
				},
				"effectiveDateTime": "2020-12-09T18:14:37.463Z",
				"code": {
					"coding": [
						{
							"system": "http://snomed.info/sct",
							"code": "258158006",
							"display": "Sleep"
						}
					]
				},
				"status": "preliminary",
				"valueCodeableConcept": {
					"coding": [
						{
							"system": "http://snomed.info/sct",
							"code": "301345002",
							"display": "more"
						}
					]
				},
				"subject": {
					"reference": "Patient/ThinkMD-16c03e36-287e-4846-8c39-17dd5c351ae3"
				},
				"performer": [
					{
						"reference": "Practitioner/123"
					}
				],
				"encounter": {
					"reference": "Encounter/b4a06597-325c-4278-8ac6-dbcf09c6cb93"
				}
			},
			"request": {
				"method": "PUT",
				"url": "Observation/sleeping-b4a06597-325c-4278-8ac6-dbcf09c6cb93"
			}
		},
		{
			"fullUrl": "https://fhir.thinkmd.tech/Observation/breathingfast-b4a06597-325c-4278-8ac6-dbcf09c6cb93",
			"resource": {
				"resourceType": "Observation",
				"id": "breathingfast-b4a06597-325c-4278-8ac6-dbcf09c6cb93",
				"text": {
					"div": "<div class='fhirObservation'><span>Observation</span> - <span>breathing_fast</span> : <span>yes</span></div>",
					"status": "additional"
				},
				"effectiveDateTime": "2020-12-09T18:14:37.463Z",
				"code": {
					"coding": [
						{
							"system": "",
							"display": ""
						}
					]
				},
				"status": "preliminary",
				"valueCodeableConcept": {
					"coding": [
						{
							"system": "",
							"display": "yes"
						}
					]
				},
				"subject": {
					"reference": "Patient/ThinkMD-16c03e36-287e-4846-8c39-17dd5c351ae3"
				},
				"performer": [
					{
						"reference": "Practitioner/123"
					}
				],
				"encounter": {
					"reference": "Encounter/b4a06597-325c-4278-8ac6-dbcf09c6cb93"
				}
			},
			"request": {
				"method": "PUT",
				"url": "Observation/breathingfast-b4a06597-325c-4278-8ac6-dbcf09c6cb93"
			}
		},
		{
			"fullUrl": "https://fhir.thinkmd.tech/Observation/breathingstruggle-b4a06597-325c-4278-8ac6-dbcf09c6cb93",
			"resource": {
				"resourceType": "Observation",
				"id": "breathingstruggle-b4a06597-325c-4278-8ac6-dbcf09c6cb93",
				"text": {
					"div": "<div class='fhirObservation'><span>Observation</span> - <span>breathing_struggle</span> : <span>yes</span></div>",
					"status": "additional"
				},
				"effectiveDateTime": "2020-12-09T18:14:37.463Z",
				"code": {
					"coding": [
						{
							"system": "",
							"display": ""
						}
					]
				},
				"status": "preliminary",
				"valueCodeableConcept": {
					"coding": [
						{
							"system": "",
							"display": "yes"
						}
					]
				},
				"subject": {
					"reference": "Patient/ThinkMD-16c03e36-287e-4846-8c39-17dd5c351ae3"
				},
				"performer": [
					{
						"reference": "Practitioner/123"
					}
				],
				"encounter": {
					"reference": "Encounter/b4a06597-325c-4278-8ac6-dbcf09c6cb93"
				}
			},
			"request": {
				"method": "PUT",
				"url": "Observation/breathingstruggle-b4a06597-325c-4278-8ac6-dbcf09c6cb93"
			}
		},
		{
			"fullUrl": "https://fhir.thinkmd.tech/Observation/coughingyesno-b4a06597-325c-4278-8ac6-dbcf09c6cb93",
			"resource": {
				"resourceType": "Observation",
				"id": "coughingyesno-b4a06597-325c-4278-8ac6-dbcf09c6cb93",
				"text": {
					"div": "<div class='fhirObservation'><span>Observation</span> - <span>coughing_yesno</span> : <span>yes</span></div>",
					"status": "additional"
				},
				"effectiveDateTime": "2020-12-09T18:14:37.463Z",
				"code": {
					"coding": [
						{
							"system": "",
							"display": ""
						}
					]
				},
				"status": "preliminary",
				"valueCodeableConcept": {
					"coding": [
						{
							"system": "",
							"display": "yes"
						}
					]
				},
				"subject": {
					"reference": "Patient/ThinkMD-16c03e36-287e-4846-8c39-17dd5c351ae3"
				},
				"performer": [
					{
						"reference": "Practitioner/123"
					}
				],
				"encounter": {
					"reference": "Encounter/b4a06597-325c-4278-8ac6-dbcf09c6cb93"
				}
			},
			"request": {
				"method": "PUT",
				"url": "Observation/coughingyesno-b4a06597-325c-4278-8ac6-dbcf09c6cb93"
			}
		},
		{
			"fullUrl": "https://fhir.thinkmd.tech/Observation/coughingduration-b4a06597-325c-4278-8ac6-dbcf09c6cb93",
			"resource": {
				"resourceType": "Observation",
				"id": "coughingduration-b4a06597-325c-4278-8ac6-dbcf09c6cb93",
				"text": {
					"div": "<div class='fhirObservation'><span>Observation</span> - <span>coughing_duration</span> : <span>12 /min</span></div>",
					"status": "additional"
				},
				"effectiveDateTime": "2020-12-09T18:14:37.463Z",
				"code": {
					"coding": [
						{
							"system": "http://snomed.info/sct",
							"code": "86290005",
							"display": "Respiratory rate"
						}
					]
				},
				"status": "preliminary",
				"valueQuantity": {
					"system": "http://unitsofmeasure.org",
					"unit": "breaths/minute",
					"code": "/min",
					"value": 12
				},
				"subject": {
					"reference": "Patient/ThinkMD-16c03e36-287e-4846-8c39-17dd5c351ae3"
				},
				"performer": [
					{
						"reference": "Practitioner/123"
					}
				],
				"encounter": {
					"reference": "Encounter/b4a06597-325c-4278-8ac6-dbcf09c6cb93"
				}
			},
			"request": {
				"method": "PUT",
				"url": "Observation/coughingduration-b4a06597-325c-4278-8ac6-dbcf09c6cb93"
			}
		},
		{
			"fullUrl": "https://fhir.thinkmd.tech/Observation/coughingdetailblood-b4a06597-325c-4278-8ac6-dbcf09c6cb93",
			"resource": {
				"resourceType": "Observation",
				"id": "coughingdetailblood-b4a06597-325c-4278-8ac6-dbcf09c6cb93",
				"text": {
					"div": "<div class='fhirObservation'><span>Observation</span> - <span>coughing_detail_blood</span> : <span>yes</span></div>",
					"status": "additional"
				},
				"effectiveDateTime": "2020-12-09T18:14:37.463Z",
				"code": {
					"coding": [
						{
							"system": "",
							"display": ""
						}
					]
				},
				"status": "preliminary",
				"valueCodeableConcept": {
					"coding": [
						{
							"system": "",
							"display": "yes"
						}
					]
				},
				"subject": {
					"reference": "Patient/ThinkMD-16c03e36-287e-4846-8c39-17dd5c351ae3"
				},
				"performer": [
					{
						"reference": "Practitioner/123"
					}
				],
				"encounter": {
					"reference": "Encounter/b4a06597-325c-4278-8ac6-dbcf09c6cb93"
				}
			},
			"request": {
				"method": "PUT",
				"url": "Observation/coughingdetailblood-b4a06597-325c-4278-8ac6-dbcf09c6cb93"
			}
		},
		{
			"fullUrl": "https://fhir.thinkmd.tech/Observation/coughingdetailgreenyellowmucus-b4a06597-325c-4278-8ac6-dbcf09c6c",
			"resource": {
				"resourceType": "Observation",
				"id": "coughingdetailgreenyellowmucus-b4a06597-325c-4278-8ac6-dbcf09c6c",
				"text": {
					"div": "<div class='fhirObservation'><span>Observation</span> - <span>coughing_detail_green_yellow_mucus</span> : <span>yes</span></div>",
					"status": "additional"
				},
				"effectiveDateTime": "2020-12-09T18:14:37.463Z",
				"code": {
					"coding": [
						{
							"system": "",
							"display": ""
						}
					]
				},
				"status": "preliminary",
				"valueCodeableConcept": {
					"coding": [
						{
							"system": "",
							"display": "yes"
						}
					]
				},
				"subject": {
					"reference": "Patient/ThinkMD-16c03e36-287e-4846-8c39-17dd5c351ae3"
				},
				"performer": [
					{
						"reference": "Practitioner/123"
					}
				],
				"encounter": {
					"reference": "Encounter/b4a06597-325c-4278-8ac6-dbcf09c6cb93"
				}
			},
			"request": {
				"method": "PUT",
				"url": "Observation/coughingdetailgreenyellowmucus-b4a06597-325c-4278-8ac6-dbcf09c6c"
			}
		},
		{
			"fullUrl": "https://fhir.thinkmd.tech/Observation/coughingdetailworseatnight-b4a06597-325c-4278-8ac6-dbcf09c6cb93",
			"resource": {
				"resourceType": "Observation",
				"id": "coughingdetailworseatnight-b4a06597-325c-4278-8ac6-dbcf09c6cb93",
				"text": {
					"div": "<div class='fhirObservation'><span>Observation</span> - <span>coughing_detail_worse_at_night</span> : <span>yes</span></div>",
					"status": "additional"
				},
				"effectiveDateTime": "2020-12-09T18:14:37.463Z",
				"code": {
					"coding": [
						{
							"system": "",
							"display": ""
						}
					]
				},
				"status": "preliminary",
				"valueCodeableConcept": {
					"coding": [
						{
							"system": "",
							"display": "yes"
						}
					]
				},
				"subject": {
					"reference": "Patient/ThinkMD-16c03e36-287e-4846-8c39-17dd5c351ae3"
				},
				"performer": [
					{
						"reference": "Practitioner/123"
					}
				],
				"encounter": {
					"reference": "Encounter/b4a06597-325c-4278-8ac6-dbcf09c6cb93"
				}
			},
			"request": {
				"method": "PUT",
				"url": "Observation/coughingdetailworseatnight-b4a06597-325c-4278-8ac6-dbcf09c6cb93"
			}
		},
		{
			"fullUrl": "https://fhir.thinkmd.tech/Observation/coughingdetailwheezing-b4a06597-325c-4278-8ac6-dbcf09c6cb93",
			"resource": {
				"resourceType": "Observation",
				"id": "coughingdetailwheezing-b4a06597-325c-4278-8ac6-dbcf09c6cb93",
				"text": {
					"div": "<div class='fhirObservation'><span>Observation</span> - <span>coughing_detail_wheezing</span> : <span>yes</span></div>",
					"status": "additional"
				},
				"effectiveDateTime": "2020-12-09T18:14:37.463Z",
				"code": {
					"coding": [
						{
							"system": "",
							"display": ""
						}
					]
				},
				"status": "preliminary",
				"valueCodeableConcept": {
					"coding": [
						{
							"system": "",
							"display": "yes"
						}
					]
				},
				"subject": {
					"reference": "Patient/ThinkMD-16c03e36-287e-4846-8c39-17dd5c351ae3"
				},
				"performer": [
					{
						"reference": "Practitioner/123"
					}
				],
				"encounter": {
					"reference": "Encounter/b4a06597-325c-4278-8ac6-dbcf09c6cb93"
				}
			},
			"request": {
				"method": "PUT",
				"url": "Observation/coughingdetailwheezing-b4a06597-325c-4278-8ac6-dbcf09c6cb93"
			}
		},
		{
			"fullUrl": "https://fhir.thinkmd.tech/Observation/nasaldischarge-b4a06597-325c-4278-8ac6-dbcf09c6cb93",
			"resource": {
				"resourceType": "Observation",
				"id": "nasaldischarge-b4a06597-325c-4278-8ac6-dbcf09c6cb93",
				"text": {
					"div": "<div class='fhirObservation'><span>Observation</span> - <span>nasal_discharge</span> : <span>yellow_green</span></div>",
					"status": "additional"
				},
				"effectiveDateTime": "2020-12-09T18:14:37.463Z",
				"code": {
					"coding": [
						{
							"system": "",
							"display": ""
						}
					]
				},
				"status": "preliminary",
				"valueCodeableConcept": {
					"coding": [
						{
							"system": "",
							"display": "yellow_green"
						}
					]
				},
				"subject": {
					"reference": "Patient/ThinkMD-16c03e36-287e-4846-8c39-17dd5c351ae3"
				},
				"performer": [
					{
						"reference": "Practitioner/123"
					}
				],
				"encounter": {
					"reference": "Encounter/b4a06597-325c-4278-8ac6-dbcf09c6cb93"
				}
			},
			"request": {
				"method": "PUT",
				"url": "Observation/nasaldischarge-b4a06597-325c-4278-8ac6-dbcf09c6cb93"
			}
		},
		{
			"fullUrl": "https://fhir.thinkmd.tech/Observation/throatpain-b4a06597-325c-4278-8ac6-dbcf09c6cb93",
			"resource": {
				"resourceType": "Observation",
				"id": "throatpain-b4a06597-325c-4278-8ac6-dbcf09c6cb93",
				"text": {
					"div": "<div class='fhirObservation'><span>Observation</span> - <span>throat_pain</span> : <span>yes</span></div>",
					"status": "additional"
				},
				"effectiveDateTime": "2020-12-09T18:14:37.463Z",
				"code": {
					"coding": [
						{
							"system": "http://snomed.info/sct",
							"code": "162388002",
							"display": "Sore throat present"
						}
					]
				},
				"status": "preliminary",
				"valueCodeableConcept": {
					"coding": [
						{
							"system": "https://fhir.loinc.org/ValueSet/LL3044-6",
							"code": "Y",
							"display": "yes"
						}
					]
				},
				"subject": {
					"reference": "Patient/ThinkMD-16c03e36-287e-4846-8c39-17dd5c351ae3"
				},
				"performer": [
					{
						"reference": "Practitioner/123"
					}
				],
				"encounter": {
					"reference": "Encounter/b4a06597-325c-4278-8ac6-dbcf09c6cb93"
				}
			},
			"request": {
				"method": "PUT",
				"url": "Observation/throatpain-b4a06597-325c-4278-8ac6-dbcf09c6cb93"
			}
		},
		{
			"fullUrl": "https://fhir.thinkmd.tech/Observation/abdominalpain-b4a06597-325c-4278-8ac6-dbcf09c6cb93",
			"resource": {
				"resourceType": "Observation",
				"id": "abdominalpain-b4a06597-325c-4278-8ac6-dbcf09c6cb93",
				"text": {
					"div": "<div class='fhirObservation'><span>Observation</span> - <span>abdominal_pain</span> : <span>yes</span></div>",
					"status": "additional"
				},
				"effectiveDateTime": "2020-12-09T18:14:37.463Z",
				"code": {
					"coding": [
						{
							"system": "http://snomed.info/sct",
							"code": "271681002",
							"display": "Stomach Ache"
						}
					]
				},
				"status": "preliminary",
				"valueCodeableConcept": {
					"coding": [
						{
							"system": "https://fhir.loinc.org/ValueSet/LL3044-6",
							"code": "Y",
							"display": "yes"
						}
					]
				},
				"subject": {
					"reference": "Patient/ThinkMD-16c03e36-287e-4846-8c39-17dd5c351ae3"
				},
				"performer": [
					{
						"reference": "Practitioner/123"
					}
				],
				"encounter": {
					"reference": "Encounter/b4a06597-325c-4278-8ac6-dbcf09c6cb93"
				}
			},
			"request": {
				"method": "PUT",
				"url": "Observation/abdominalpain-b4a06597-325c-4278-8ac6-dbcf09c6cb93"
			}
		},
		{
			"fullUrl": "https://fhir.thinkmd.tech/Observation/vomiting-b4a06597-325c-4278-8ac6-dbcf09c6cb93",
			"resource": {
				"resourceType": "Observation",
				"id": "vomiting-b4a06597-325c-4278-8ac6-dbcf09c6cb93",
				"text": {
					"div": "<div class='fhirObservation'><span>Observation</span> - <span>vomiting</span> : <span>yes</span></div>",
					"status": "additional"
				},
				"effectiveDateTime": "2020-12-09T18:14:37.463Z",
				"code": {
					"coding": [
						{
							"system": "",
							"display": ""
						}
					]
				},
				"status": "preliminary",
				"valueCodeableConcept": {
					"coding": [
						{
							"system": "",
							"display": "yes"
						}
					]
				},
				"subject": {
					"reference": "Patient/ThinkMD-16c03e36-287e-4846-8c39-17dd5c351ae3"
				},
				"performer": [
					{
						"reference": "Practitioner/123"
					}
				],
				"encounter": {
					"reference": "Encounter/b4a06597-325c-4278-8ac6-dbcf09c6cb93"
				}
			},
			"request": {
				"method": "PUT",
				"url": "Observation/vomiting-b4a06597-325c-4278-8ac6-dbcf09c6cb93"
			}
		},
		{
			"fullUrl": "https://fhir.thinkmd.tech/Observation/vomitingfrequency-b4a06597-325c-4278-8ac6-dbcf09c6cb93",
			"resource": {
				"resourceType": "Observation",
				"id": "vomitingfrequency-b4a06597-325c-4278-8ac6-dbcf09c6cb93",
				"text": {
					"div": "<div class='fhirObservation'><span>Observation</span> - <span>vomiting_frequency</span> : <span>5 /min</span></div>",
					"status": "additional"
				},
				"effectiveDateTime": "2020-12-09T18:14:37.463Z",
				"code": {
					"coding": [
						{
							"system": "http://snomed.info/sct",
							"code": "86290005",
							"display": "Respiratory rate"
						}
					]
				},
				"status": "preliminary",
				"valueQuantity": {
					"system": "http://unitsofmeasure.org",
					"unit": "breaths/minute",
					"code": "/min",
					"value": 5
				},
				"subject": {
					"reference": "Patient/ThinkMD-16c03e36-287e-4846-8c39-17dd5c351ae3"
				},
				"performer": [
					{
						"reference": "Practitioner/123"
					}
				],
				"encounter": {
					"reference": "Encounter/b4a06597-325c-4278-8ac6-dbcf09c6cb93"
				}
			},
			"request": {
				"method": "PUT",
				"url": "Observation/vomitingfrequency-b4a06597-325c-4278-8ac6-dbcf09c6cb93"
			}
		},
		{
			"fullUrl": "https://fhir.thinkmd.tech/Observation/vomitingdetailchild-b4a06597-325c-4278-8ac6-dbcf09c6cb93",
			"resource": {
				"resourceType": "Observation",
				"id": "vomitingdetailchild-b4a06597-325c-4278-8ac6-dbcf09c6cb93",
				"text": {
					"div": "<div class='fhirObservation'><span>Observation</span> - <span>vomiting_detail_child</span> : <span>clear</span></div>",
					"status": "additional"
				},
				"effectiveDateTime": "2020-12-09T18:14:37.463Z",
				"code": {
					"coding": [
						{
							"system": "http://snomed.info/sct",
							"code": "249497008",
							"display": "Vomiting symptom"
						}
					]
				},
				"status": "preliminary",
				"valueCodeableConcept": {
					"coding": [
						{
							"system": "http://snomed.info/sct",
							"code": "16932000",
							"display": "clear"
						}
					]
				},
				"subject": {
					"reference": "Patient/ThinkMD-16c03e36-287e-4846-8c39-17dd5c351ae3"
				},
				"performer": [
					{
						"reference": "Practitioner/123"
					}
				],
				"encounter": {
					"reference": "Encounter/b4a06597-325c-4278-8ac6-dbcf09c6cb93"
				}
			},
			"request": {
				"method": "PUT",
				"url": "Observation/vomitingdetailchild-b4a06597-325c-4278-8ac6-dbcf09c6cb93"
			}
		},
		{
			"fullUrl": "https://fhir.thinkmd.tech/Observation/forcefulvomit-b4a06597-325c-4278-8ac6-dbcf09c6cb93",
			"resource": {
				"resourceType": "Observation",
				"id": "forcefulvomit-b4a06597-325c-4278-8ac6-dbcf09c6cb93",
				"text": {
					"div": "<div class='fhirObservation'><span>Observation</span> - <span>forceful_vomit</span> : <span>yes</span></div>",
					"status": "additional"
				},
				"effectiveDateTime": "2020-12-09T18:14:37.463Z",
				"code": {
					"coding": [
						{
							"system": "http://snomed.info/sct",
							"code": "8579004",
							"display": "Violent retching"
						}
					]
				},
				"status": "preliminary",
				"valueCodeableConcept": {
					"coding": [
						{
							"system": "https://fhir.loinc.org/ValueSet/LL3044-6",
							"code": "Y",
							"display": "yes"
						}
					]
				},
				"subject": {
					"reference": "Patient/ThinkMD-16c03e36-287e-4846-8c39-17dd5c351ae3"
				},
				"performer": [
					{
						"reference": "Practitioner/123"
					}
				],
				"encounter": {
					"reference": "Encounter/b4a06597-325c-4278-8ac6-dbcf09c6cb93"
				}
			},
			"request": {
				"method": "PUT",
				"url": "Observation/forcefulvomit-b4a06597-325c-4278-8ac6-dbcf09c6cb93"
			}
		},
		{
			"fullUrl": "https://fhir.thinkmd.tech/Observation/diarrheayesno-b4a06597-325c-4278-8ac6-dbcf09c6cb93",
			"resource": {
				"resourceType": "Observation",
				"id": "diarrheayesno-b4a06597-325c-4278-8ac6-dbcf09c6cb93",
				"text": {
					"div": "<div class='fhirObservation'><span>Observation</span> - <span>diarrhea_yesno</span> : <span>yes</span></div>",
					"status": "additional"
				},
				"effectiveDateTime": "2020-12-09T18:14:37.463Z",
				"code": {
					"coding": [
						{
							"system": "",
							"display": ""
						}
					]
				},
				"status": "preliminary",
				"valueCodeableConcept": {
					"coding": [
						{
							"system": "",
							"display": "yes"
						}
					]
				},
				"subject": {
					"reference": "Patient/ThinkMD-16c03e36-287e-4846-8c39-17dd5c351ae3"
				},
				"performer": [
					{
						"reference": "Practitioner/123"
					}
				],
				"encounter": {
					"reference": "Encounter/b4a06597-325c-4278-8ac6-dbcf09c6cb93"
				}
			},
			"request": {
				"method": "PUT",
				"url": "Observation/diarrheayesno-b4a06597-325c-4278-8ac6-dbcf09c6cb93"
			}
		},
		{
			"fullUrl": "https://fhir.thinkmd.tech/Observation/diarrheafrequency-b4a06597-325c-4278-8ac6-dbcf09c6cb93",
			"resource": {
				"resourceType": "Observation",
				"id": "diarrheafrequency-b4a06597-325c-4278-8ac6-dbcf09c6cb93",
				"text": {
					"div": "<div class='fhirObservation'><span>Observation</span> - <span>diarrhea_frequency</span> : <span>5 /min</span></div>",
					"status": "additional"
				},
				"effectiveDateTime": "2020-12-09T18:14:37.463Z",
				"code": {
					"coding": [
						{
							"system": "http://snomed.info/sct",
							"code": "86290005",
							"display": "Respiratory rate"
						}
					]
				},
				"status": "preliminary",
				"valueQuantity": {
					"system": "http://unitsofmeasure.org",
					"unit": "breaths/minute",
					"code": "/min",
					"value": 5
				},
				"subject": {
					"reference": "Patient/ThinkMD-16c03e36-287e-4846-8c39-17dd5c351ae3"
				},
				"performer": [
					{
						"reference": "Practitioner/123"
					}
				],
				"encounter": {
					"reference": "Encounter/b4a06597-325c-4278-8ac6-dbcf09c6cb93"
				}
			},
			"request": {
				"method": "PUT",
				"url": "Observation/diarrheafrequency-b4a06597-325c-4278-8ac6-dbcf09c6cb93"
			}
		},
		{
			"fullUrl": "https://fhir.thinkmd.tech/Observation/stool-b4a06597-325c-4278-8ac6-dbcf09c6cb93",
			"resource": {
				"resourceType": "Observation",
				"id": "stool-b4a06597-325c-4278-8ac6-dbcf09c6cb93",
				"text": {
					"div": "<div class='fhirObservation'><span>Observation</span> - <span>stool</span> : <span>watery</span></div>",
					"status": "additional"
				},
				"effectiveDateTime": "2020-12-09T18:14:37.463Z",
				"code": {
					"coding": [
						{
							"system": "http://snomed.info/sct",
							"code": "249612005",
							"display": "Stool features"
						}
					]
				},
				"status": "preliminary",
				"valueCodeableConcept": {
					"coding": [
						{
							"system": "http://snomed.info/sct",
							"code": "398212009",
							"display": "watery"
						}
					]
				},
				"subject": {
					"reference": "Patient/ThinkMD-16c03e36-287e-4846-8c39-17dd5c351ae3"
				},
				"performer": [
					{
						"reference": "Practitioner/123"
					}
				],
				"encounter": {
					"reference": "Encounter/b4a06597-325c-4278-8ac6-dbcf09c6cb93"
				}
			},
			"request": {
				"method": "PUT",
				"url": "Observation/stool-b4a06597-325c-4278-8ac6-dbcf09c6cb93"
			}
		},
		{
			"fullUrl": "https://fhir.thinkmd.tech/Observation/lasturination-b4a06597-325c-4278-8ac6-dbcf09c6cb93",
			"resource": {
				"resourceType": "Observation",
				"id": "lasturination-b4a06597-325c-4278-8ac6-dbcf09c6cb93",
				"text": {
					"div": "<div class='fhirObservation'><span>Observation</span> - <span>last_urination</span> : <span>7 /min</span></div>",
					"status": "additional"
				},
				"effectiveDateTime": "2020-12-09T18:14:37.463Z",
				"code": {
					"coding": [
						{
							"system": "http://snomed.info/sct",
							"code": "86290005",
							"display": "Respiratory rate"
						}
					]
				},
				"status": "preliminary",
				"valueQuantity": {
					"system": "http://unitsofmeasure.org",
					"unit": "breaths/minute",
					"code": "/min",
					"value": 7
				},
				"subject": {
					"reference": "Patient/ThinkMD-16c03e36-287e-4846-8c39-17dd5c351ae3"
				},
				"performer": [
					{
						"reference": "Practitioner/123"
					}
				],
				"encounter": {
					"reference": "Encounter/b4a06597-325c-4278-8ac6-dbcf09c6cb93"
				}
			},
			"request": {
				"method": "PUT",
				"url": "Observation/lasturination-b4a06597-325c-4278-8ac6-dbcf09c6cb93"
			}
		},
		{
			"fullUrl": "https://fhir.thinkmd.tech/Observation/drinking-b4a06597-325c-4278-8ac6-dbcf09c6cb93",
			"resource": {
				"resourceType": "Observation",
				"id": "drinking-b4a06597-325c-4278-8ac6-dbcf09c6cb93",
				"text": {
					"div": "<div class='fhirObservation'><span>Observation</span> - <span>drinking</span> : <span>more</span></div>",
					"status": "additional"
				},
				"effectiveDateTime": "2020-12-09T18:14:37.463Z",
				"code": {
					"coding": [
						{
							"system": "http://snomed.info/sct",
							"code": "252045004",
							"display": "Fluid intake frequency"
						}
					]
				},
				"status": "preliminary",
				"valueCodeableConcept": {
					"coding": [
						{
							"system": "http://snomed.info/sct",
							"code": "267026004",
							"display": "more"
						}
					]
				},
				"subject": {
					"reference": "Patient/ThinkMD-16c03e36-287e-4846-8c39-17dd5c351ae3"
				},
				"performer": [
					{
						"reference": "Practitioner/123"
					}
				],
				"encounter": {
					"reference": "Encounter/b4a06597-325c-4278-8ac6-dbcf09c6cb93"
				}
			},
			"request": {
				"method": "PUT",
				"url": "Observation/drinking-b4a06597-325c-4278-8ac6-dbcf09c6cb93"
			}
		},
		{
			"fullUrl": "https://fhir.thinkmd.tech/Observation/tears-b4a06597-325c-4278-8ac6-dbcf09c6cb93",
			"resource": {
				"resourceType": "Observation",
				"id": "tears-b4a06597-325c-4278-8ac6-dbcf09c6cb93",
				"text": {
					"div": "<div class='fhirObservation'><span>Observation</span> - <span>tears</span> : <span>no</span></div>",
					"status": "additional"
				},
				"effectiveDateTime": "2020-12-09T18:14:37.463Z",
				"code": {
					"coding": [
						{
							"system": "http://snomed.info/sct",
							"code": "64702000",
							"display": "Tear production"
						}
					]
				},
				"status": "preliminary",
				"valueCodeableConcept": {
					"coding": [
						{
							"system": "http://terminology.hl7.org/CodeSystem/v2-0136",
							"code": "246849001",
							"display": "no"
						}
					]
				},
				"subject": {
					"reference": "Patient/ThinkMD-16c03e36-287e-4846-8c39-17dd5c351ae3"
				},
				"performer": [
					{
						"reference": "Practitioner/123"
					}
				],
				"encounter": {
					"reference": "Encounter/b4a06597-325c-4278-8ac6-dbcf09c6cb93"
				}
			},
			"request": {
				"method": "PUT",
				"url": "Observation/tears-b4a06597-325c-4278-8ac6-dbcf09c6cb93"
			}
		},
		{
			"fullUrl": "https://fhir.thinkmd.tech/Observation/latching-b4a06597-325c-4278-8ac6-dbcf09c6cb93",
			"resource": {
				"resourceType": "Observation",
				"id": "latching-b4a06597-325c-4278-8ac6-dbcf09c6cb93",
				"text": {
					"div": "<div class='fhirObservation'><span>Observation</span> - <span>latching</span> : <span>normal</span></div>",
					"status": "additional"
				},
				"effectiveDateTime": "2020-12-09T18:14:37.463Z",
				"code": {
					"coding": [
						{
							"system": "http://snomed.info/sct",
							"code": "64809004",
							"display": "Finding related to ability to latch on to breast for feeding"
						}
					]
				},
				"status": "preliminary",
				"valueCodeableConcept": {
					"coding": [
						{
							"system": "http://terminology.hl7.org/CodeSystem/v2-0136",
							"code": "288988007",
							"display": "normal"
						}
					]
				},
				"subject": {
					"reference": "Patient/ThinkMD-16c03e36-287e-4846-8c39-17dd5c351ae3"
				},
				"performer": [
					{
						"reference": "Practitioner/123"
					}
				],
				"encounter": {
					"reference": "Encounter/b4a06597-325c-4278-8ac6-dbcf09c6cb93"
				}
			},
			"request": {
				"method": "PUT",
				"url": "Observation/latching-b4a06597-325c-4278-8ac6-dbcf09c6cb93"
			}
		},
		{
			"fullUrl": "https://fhir.thinkmd.tech/Observation/hungryafterfeeding-b4a06597-325c-4278-8ac6-dbcf09c6cb93",
			"resource": {
				"resourceType": "Observation",
				"id": "hungryafterfeeding-b4a06597-325c-4278-8ac6-dbcf09c6cb93",
				"text": {
					"div": "<div class='fhirObservation'><span>Observation</span> - <span>hungry_after_feeding</span> : <span>yes</span></div>",
					"status": "additional"
				},
				"effectiveDateTime": "2020-12-09T18:14:37.463Z",
				"code": {
					"coding": [
						{
							"system": "http://snomed.info/sct",
							"code": "24863003",
							"display": "Postprandial hunger"
						}
					]
				},
				"status": "preliminary",
				"valueCodeableConcept": {
					"coding": [
						{
							"system": "http://terminology.hl7.org/CodeSystem/v2-0136",
							"code": "55350005",
							"display": "yes"
						}
					]
				},
				"subject": {
					"reference": "Patient/ThinkMD-16c03e36-287e-4846-8c39-17dd5c351ae3"
				},
				"performer": [
					{
						"reference": "Practitioner/123"
					}
				],
				"encounter": {
					"reference": "Encounter/b4a06597-325c-4278-8ac6-dbcf09c6cb93"
				}
			},
			"request": {
				"method": "PUT",
				"url": "Observation/hungryafterfeeding-b4a06597-325c-4278-8ac6-dbcf09c6cb93"
			}
		},
		{
			"fullUrl": "https://fhir.thinkmd.tech/Observation/disposition-b4a06597-325c-4278-8ac6-dbcf09c6cb93",
			"resource": {
				"resourceType": "Observation",
				"id": "disposition-b4a06597-325c-4278-8ac6-dbcf09c6cb93",
				"text": {
					"div": "<div class='fhirObservation'><span>Observation</span> - <span>disposition</span> : <span>calm</span></div>",
					"status": "additional"
				},
				"effectiveDateTime": "2020-12-09T18:14:37.463Z",
				"code": {
					"coding": [
						{
							"system": "http://snomed.info/sct",
							"code": "64809004",
							"display": "mood finding"
						}
					]
				},
				"status": "preliminary",
				"valueCodeableConcept": {
					"coding": [
						{
							"system": "http://terminology.hl7.org/CodeSystem/v2-0136",
							"code": "134417007",
							"display": "calm"
						}
					]
				},
				"subject": {
					"reference": "Patient/ThinkMD-16c03e36-287e-4846-8c39-17dd5c351ae3"
				},
				"performer": [
					{
						"reference": "Practitioner/123"
					}
				],
				"encounter": {
					"reference": "Encounter/b4a06597-325c-4278-8ac6-dbcf09c6cb93"
				}
			},
			"request": {
				"method": "PUT",
				"url": "Observation/disposition-b4a06597-325c-4278-8ac6-dbcf09c6cb93"
			}
		},
		{
			"fullUrl": "https://fhir.thinkmd.tech/Observation/weight-b4a06597-325c-4278-8ac6-dbcf09c6cb93",
			"resource": {
				"resourceType": "Observation",
				"id": "weight-b4a06597-325c-4278-8ac6-dbcf09c6cb93",
				"text": {
					"div": "<div class='fhirObservation'><span>Observation</span> - <span>weight</span> : <span>12.1 kg</span></div>",
					"status": "additional"
				},
				"effectiveDateTime": "2020-12-09T18:14:37.463Z",
				"code": {
					"coding": [
						{
							"system": "http://snomed.info/sct",
							"code": "27113001",
							"display": "Body weight"
						}
					]
				},
				"status": "preliminary",
				"valueQuantity": {
					"system": "http://unitsofmeasure.org",
					"unit": "kg",
					"code": "kg",
					"value": 12.1
				},
				"subject": {
					"reference": "Patient/ThinkMD-16c03e36-287e-4846-8c39-17dd5c351ae3"
				},
				"performer": [
					{
						"reference": "Practitioner/123"
					}
				],
				"encounter": {
					"reference": "Encounter/b4a06597-325c-4278-8ac6-dbcf09c6cb93"
				}
			},
			"request": {
				"method": "PUT",
				"url": "Observation/weight-b4a06597-325c-4278-8ac6-dbcf09c6cb93"
			}
		},
		{
			"fullUrl": "https://fhir.thinkmd.tech/Observation/height-b4a06597-325c-4278-8ac6-dbcf09c6cb93",
			"resource": {
				"resourceType": "Observation",
				"id": "height-b4a06597-325c-4278-8ac6-dbcf09c6cb93",
				"text": {
					"div": "<div class='fhirObservation'><span>Observation</span> - <span>height</span> : <span>48 kg</span></div>",
					"status": "additional"
				},
				"effectiveDateTime": "2020-12-09T18:14:37.463Z",
				"code": {
					"coding": [
						{
							"system": "http://snomed.info/sct",
							"code": "50373000",
							"display": "Body height"
						}
					]
				},
				"status": "preliminary",
				"valueQuantity": {
					"system": "http://unitsofmeasure.org",
					"unit": "kg",
					"code": "kg",
					"value": 48
				},
				"subject": {
					"reference": "Patient/ThinkMD-16c03e36-287e-4846-8c39-17dd5c351ae3"
				},
				"performer": [
					{
						"reference": "Practitioner/123"
					}
				],
				"encounter": {
					"reference": "Encounter/b4a06597-325c-4278-8ac6-dbcf09c6cb93"
				}
			},
			"request": {
				"method": "PUT",
				"url": "Observation/height-b4a06597-325c-4278-8ac6-dbcf09c6cb93"
			}
		},
		{
			"fullUrl": "https://fhir.thinkmd.tech/Observation/temperature-b4a06597-325c-4278-8ac6-dbcf09c6cb93",
			"resource": {
				"resourceType": "Observation",
				"id": "temperature-b4a06597-325c-4278-8ac6-dbcf09c6cb93",
				"text": {
					"div": "<div class='fhirObservation'><span>Observation</span> - <span>temperature</span> : <span>36.9 Cel</span></div>",
					"status": "additional"
				},
				"effectiveDateTime": "2020-12-09T18:14:37.463Z",
				"code": {
					"coding": [
						{
							"system": "http://snomed.info/sct",
							"code": "386725007",
							"display": "Body temperature"
						}
					]
				},
				"status": "preliminary",
				"valueQuantity": {
					"system": "http://unitsofmeasure.org",
					"unit": "degrees C",
					"code": "Cel",
					"value": 36.9
				},
				"subject": {
					"reference": "Patient/ThinkMD-16c03e36-287e-4846-8c39-17dd5c351ae3"
				},
				"performer": [
					{
						"reference": "Practitioner/123"
					}
				],
				"encounter": {
					"reference": "Encounter/b4a06597-325c-4278-8ac6-dbcf09c6cb93"
				}
			},
			"request": {
				"method": "PUT",
				"url": "Observation/temperature-b4a06597-325c-4278-8ac6-dbcf09c6cb93"
			}
		},
		{
			"fullUrl": "https://fhir.thinkmd.tech/Observation/heartrate-b4a06597-325c-4278-8ac6-dbcf09c6cb93",
			"resource": {
				"resourceType": "Observation",
				"id": "heartrate-b4a06597-325c-4278-8ac6-dbcf09c6cb93",
				"text": {
					"div": "<div class='fhirObservation'><span>Observation</span> - <span>heart_rate</span> : <span>330 /min</span></div>",
					"status": "additional"
				},
				"effectiveDateTime": "2020-12-09T18:14:37.463Z",
				"code": {
					"coding": [
						{
							"system": "http://snomed.info/sct",
							"code": "364075005",
							"display": "Heart rate"
						}
					]
				},
				"status": "preliminary",
				"valueQuantity": {
					"system": "http://unitsofmeasure.org",
					"unit": "beats/minute",
					"code": "/min",
					"value": 330
				},
				"subject": {
					"reference": "Patient/ThinkMD-16c03e36-287e-4846-8c39-17dd5c351ae3"
				},
				"performer": [
					{
						"reference": "Practitioner/123"
					}
				],
				"encounter": {
					"reference": "Encounter/b4a06597-325c-4278-8ac6-dbcf09c6cb93"
				}
			},
			"request": {
				"method": "PUT",
				"url": "Observation/heartrate-b4a06597-325c-4278-8ac6-dbcf09c6cb93"
			}
		},
		{
			"fullUrl": "https://fhir.thinkmd.tech/Observation/respiratoryrate-b4a06597-325c-4278-8ac6-dbcf09c6cb93",
			"resource": {
				"resourceType": "Observation",
				"id": "respiratoryrate-b4a06597-325c-4278-8ac6-dbcf09c6cb93",
				"text": {
					"div": "<div class='fhirObservation'><span>Observation</span> - <span>respiratory_rate</span> : <span>349 /min</span></div>",
					"status": "additional"
				},
				"effectiveDateTime": "2020-12-09T18:14:37.463Z",
				"code": {
					"coding": [
						{
							"system": "http://snomed.info/sct",
							"code": "86290005",
							"display": "Respiratory rate"
						}
					]
				},
				"status": "preliminary",
				"valueQuantity": {
					"system": "http://unitsofmeasure.org",
					"unit": "breaths/minute",
					"code": "/min",
					"value": 349
				},
				"subject": {
					"reference": "Patient/ThinkMD-16c03e36-287e-4846-8c39-17dd5c351ae3"
				},
				"performer": [
					{
						"reference": "Practitioner/123"
					}
				],
				"encounter": {
					"reference": "Encounter/b4a06597-325c-4278-8ac6-dbcf09c6cb93"
				}
			},
			"request": {
				"method": "PUT",
				"url": "Observation/respiratoryrate-b4a06597-325c-4278-8ac6-dbcf09c6cb93"
			}
		},
		{
			"fullUrl": "https://fhir.thinkmd.tech/Observation/oxygensaturation-b4a06597-325c-4278-8ac6-dbcf09c6cb93",
			"resource": {
				"resourceType": "Observation",
				"id": "oxygensaturation-b4a06597-325c-4278-8ac6-dbcf09c6cb93",
				"text": {
					"div": "<div class='fhirObservation'><span>Observation</span> - <span>oxygen_saturation</span> : <span>76 %</span></div>",
					"status": "additional"
				},
				"effectiveDateTime": "2020-12-09T18:14:37.463Z",
				"code": {
					"coding": [
						{
							"system": "http://snomed.info/sct",
							"code": "86290005",
							"display": "Oxygen saturation measurement"
						}
					]
				},
				"status": "preliminary",
				"valueQuantity": {
					"system": "http://unitsofmeasure.org",
					"unit": "%",
					"code": "%",
					"value": 76
				},
				"subject": {
					"reference": "Patient/ThinkMD-16c03e36-287e-4846-8c39-17dd5c351ae3"
				},
				"performer": [
					{
						"reference": "Practitioner/123"
					}
				],
				"encounter": {
					"reference": "Encounter/b4a06597-325c-4278-8ac6-dbcf09c6cb93"
				}
			},
			"request": {
				"method": "PUT",
				"url": "Observation/oxygensaturation-b4a06597-325c-4278-8ac6-dbcf09c6cb93"
			}
		},
		{
			"fullUrl": "https://fhir.thinkmd.tech/Observation/muac-b4a06597-325c-4278-8ac6-dbcf09c6cb93",
			"resource": {
				"resourceType": "Observation",
				"id": "muac-b4a06597-325c-4278-8ac6-dbcf09c6cb93",
				"text": {
					"div": "<div class='fhirObservation'><span>Observation</span> - <span>muac</span> : <span>orange</span></div>",
					"status": "additional"
				},
				"effectiveDateTime": "2020-12-09T18:14:37.463Z",
				"code": {
					"coding": [
						{
							"system": "http://snomed.info/sct",
							"code": "284473002",
							"display": "Mid upper arm circumference"
						}
					]
				},
				"status": "preliminary",
				"valueCodeableConcept": {
					"coding": [
						{
							"system": "http://hl7.org/fhir/metric-color",
							"code": "orange",
							"display": "orange"
						}
					]
				},
				"subject": {
					"reference": "Patient/ThinkMD-16c03e36-287e-4846-8c39-17dd5c351ae3"
				},
				"performer": [
					{
						"reference": "Practitioner/123"
					}
				],
				"encounter": {
					"reference": "Encounter/b4a06597-325c-4278-8ac6-dbcf09c6cb93"
				}
			},
			"request": {
				"method": "PUT",
				"url": "Observation/muac-b4a06597-325c-4278-8ac6-dbcf09c6cb93"
			}
		},
		{
			"fullUrl": "https://fhir.thinkmd.tech/Observation/skinturgor-b4a06597-325c-4278-8ac6-dbcf09c6cb93",
			"resource": {
				"resourceType": "Observation",
				"id": "skinturgor-b4a06597-325c-4278-8ac6-dbcf09c6cb93",
				"text": {
					"div": "<div class='fhirObservation'><span>Observation</span> - <span>skin_turgor</span> : <span>less</span></div>",
					"status": "additional"
				},
				"effectiveDateTime": "2020-12-09T18:14:37.463Z",
				"code": {
					"coding": [
						{
							"system": "http://snomed.info/sct",
							"code": "26669000",
							"display": "Skin turgor"
						}
					]
				},
				"status": "preliminary",
				"valueCodeableConcept": {
					"coding": [
						{
							"system": "http://snomed.info/sct",
							"code": "425244000",
							"display": "less"
						}
					]
				},
				"subject": {
					"reference": "Patient/ThinkMD-16c03e36-287e-4846-8c39-17dd5c351ae3"
				},
				"performer": [
					{
						"reference": "Practitioner/123"
					}
				],
				"encounter": {
					"reference": "Encounter/b4a06597-325c-4278-8ac6-dbcf09c6cb93"
				}
			},
			"request": {
				"method": "PUT",
				"url": "Observation/skinturgor-b4a06597-325c-4278-8ac6-dbcf09c6cb93"
			}
		},
		{
			"fullUrl": "https://fhir.thinkmd.tech/Observation/capillaryrefill-b4a06597-325c-4278-8ac6-dbcf09c6cb93",
			"resource": {
				"resourceType": "Observation",
				"id": "capillaryrefill-b4a06597-325c-4278-8ac6-dbcf09c6cb93",
				"text": {
					"div": "<div class='fhirObservation'><span>Observation</span> - <span>capillary_refill</span> : <span>less</span></div>",
					"status": "additional"
				},
				"effectiveDateTime": "2020-12-09T18:14:37.463Z",
				"code": {
					"coding": [
						{
							"system": "http://snomed.info/sct",
							"code": "248753002",
							"display": "Capillary refill"
						}
					]
				},
				"status": "preliminary",
				"valueCodeableConcept": {
					"coding": [
						{
							"system": "http://snomed.info/sct",
							"code": "50427001",
							"display": "less"
						}
					]
				},
				"subject": {
					"reference": "Patient/ThinkMD-16c03e36-287e-4846-8c39-17dd5c351ae3"
				},
				"performer": [
					{
						"reference": "Practitioner/123"
					}
				],
				"encounter": {
					"reference": "Encounter/b4a06597-325c-4278-8ac6-dbcf09c6cb93"
				}
			},
			"request": {
				"method": "PUT",
				"url": "Observation/capillaryrefill-b4a06597-325c-4278-8ac6-dbcf09c6cb93"
			}
		},
		{
			"fullUrl": "https://fhir.thinkmd.tech/Observation/swollenface-b4a06597-325c-4278-8ac6-dbcf09c6cb93",
			"resource": {
				"resourceType": "Observation",
				"id": "swollenface-b4a06597-325c-4278-8ac6-dbcf09c6cb93",
				"text": {
					"div": "<div class='fhirObservation'><span>Observation</span> - <span>swollen_face</span> : <span>yes</span></div>",
					"status": "additional"
				},
				"effectiveDateTime": "2020-12-09T18:14:37.463Z",
				"code": {
					"coding": [
						{
							"system": "http://snomed.info/sct",
							"code": "278528006",
							"display": "Swollen face"
						}
					]
				},
				"status": "preliminary",
				"valueCodeableConcept": {
					"coding": [
						{
							"system": "http://terminology.hl7.org/CodeSystem/v2-0136",
							"code": "55350005",
							"display": "yes"
						}
					]
				},
				"subject": {
					"reference": "Patient/ThinkMD-16c03e36-287e-4846-8c39-17dd5c351ae3"
				},
				"performer": [
					{
						"reference": "Practitioner/123"
					}
				],
				"encounter": {
					"reference": "Encounter/b4a06597-325c-4278-8ac6-dbcf09c6cb93"
				}
			},
			"request": {
				"method": "PUT",
				"url": "Observation/swollenface-b4a06597-325c-4278-8ac6-dbcf09c6cb93"
			}
		},
		{
			"fullUrl": "https://fhir.thinkmd.tech/Observation/paleeyelids-b4a06597-325c-4278-8ac6-dbcf09c6cb93",
			"resource": {
				"resourceType": "Observation",
				"id": "paleeyelids-b4a06597-325c-4278-8ac6-dbcf09c6cb93",
				"text": {
					"div": "<div class='fhirObservation'><span>Observation</span> - <span>pale_eyelids</span> : <span>yes</span></div>",
					"status": "additional"
				},
				"effectiveDateTime": "2020-12-09T18:14:37.463Z",
				"code": {
					"coding": [
						{
							"system": "http://snomed.info/sct",
							"code": "246875002",
							"display": "Pale eyelids"
						}
					]
				},
				"status": "preliminary",
				"valueCodeableConcept": {
					"coding": [
						{
							"system": "http://snomed.info/sct",
							"code": "719640000",
							"display": "yes"
						}
					]
				},
				"subject": {
					"reference": "Patient/ThinkMD-16c03e36-287e-4846-8c39-17dd5c351ae3"
				},
				"performer": [
					{
						"reference": "Practitioner/123"
					}
				],
				"encounter": {
					"reference": "Encounter/b4a06597-325c-4278-8ac6-dbcf09c6cb93"
				}
			},
			"request": {
				"method": "PUT",
				"url": "Observation/paleeyelids-b4a06597-325c-4278-8ac6-dbcf09c6cb93"
			}
		},
		{
			"fullUrl": "https://fhir.thinkmd.tech/Observation/eyedischargeclear-b4a06597-325c-4278-8ac6-dbcf09c6cb93",
			"resource": {
				"resourceType": "Observation",
				"id": "eyedischargeclear-b4a06597-325c-4278-8ac6-dbcf09c6cb93",
				"text": {
					"div": "<div class='fhirObservation'><span>Observation</span> - <span>eye_discharge_clear</span> : <span>no</span></div>",
					"status": "additional"
				},
				"effectiveDateTime": "2020-12-09T18:14:37.463Z",
				"code": {
					"coding": [
						{
							"system": "http://snomed.info/sct",
							"code": "246846008",
							"display": "Sticking of eyelids - discharge"
						}
					]
				},
				"status": "preliminary",
				"valueCodeableConcept": {
					"coding": [
						{
							"system": "http://terminology.hl7.org/CodeSystem/v2-0136",
							"code": "249469002",
							"display": "no"
						}
					]
				},
				"subject": {
					"reference": "Patient/ThinkMD-16c03e36-287e-4846-8c39-17dd5c351ae3"
				},
				"performer": [
					{
						"reference": "Practitioner/123"
					}
				],
				"encounter": {
					"reference": "Encounter/b4a06597-325c-4278-8ac6-dbcf09c6cb93"
				}
			},
			"request": {
				"method": "PUT",
				"url": "Observation/eyedischargeclear-b4a06597-325c-4278-8ac6-dbcf09c6cb93"
			}
		},
		{
			"fullUrl": "https://fhir.thinkmd.tech/Observation/eyedischargeyellowgreen-b4a06597-325c-4278-8ac6-dbcf09c6cb93",
			"resource": {
				"resourceType": "Observation",
				"id": "eyedischargeyellowgreen-b4a06597-325c-4278-8ac6-dbcf09c6cb93",
				"text": {
					"div": "<div class='fhirObservation'><span>Observation</span> - <span>eye_discharge_yellow_green</span> : <span>no</span></div>",
					"status": "additional"
				},
				"effectiveDateTime": "2020-12-09T18:14:37.463Z",
				"code": {
					"coding": [
						{
							"system": "http://snomed.info/sct",
							"code": "246846008",
							"display": "Sticking of eyelids - discharge"
						}
					]
				},
				"status": "preliminary",
				"valueCodeableConcept": {
					"coding": [
						{
							"system": "http://terminology.hl7.org/CodeSystem/v2-0136",
							"code": "249469002",
							"display": "no"
						}
					]
				},
				"subject": {
					"reference": "Patient/ThinkMD-16c03e36-287e-4846-8c39-17dd5c351ae3"
				},
				"performer": [
					{
						"reference": "Practitioner/123"
					}
				],
				"encounter": {
					"reference": "Encounter/b4a06597-325c-4278-8ac6-dbcf09c6cb93"
				}
			},
			"request": {
				"method": "PUT",
				"url": "Observation/eyedischargeyellowgreen-b4a06597-325c-4278-8ac6-dbcf09c6cb93"
			}
		},
		{
			"fullUrl": "https://fhir.thinkmd.tech/Observation/redeyes-b4a06597-325c-4278-8ac6-dbcf09c6cb93",
			"resource": {
				"resourceType": "Observation",
				"id": "redeyes-b4a06597-325c-4278-8ac6-dbcf09c6cb93",
				"text": {
					"div": "<div class='fhirObservation'><span>Observation</span> - <span>red_eyes</span> : <span>yes</span></div>",
					"status": "additional"
				},
				"effectiveDateTime": "2020-12-09T18:14:37.463Z",
				"code": {
					"coding": [
						{
							"system": "http://snomed.info/sct",
							"code": "703630003",
							"display": "red eyes"
						}
					]
				},
				"status": "preliminary",
				"valueCodeableConcept": {
					"coding": [
						{
							"system": "http://terminology.hl7.org/CodeSystem/v2-0136",
							"code": "55350005",
							"display": "yes"
						}
					]
				},
				"subject": {
					"reference": "Patient/ThinkMD-16c03e36-287e-4846-8c39-17dd5c351ae3"
				},
				"performer": [
					{
						"reference": "Practitioner/123"
					}
				],
				"encounter": {
					"reference": "Encounter/b4a06597-325c-4278-8ac6-dbcf09c6cb93"
				}
			},
			"request": {
				"method": "PUT",
				"url": "Observation/redeyes-b4a06597-325c-4278-8ac6-dbcf09c6cb93"
			}
		},
		{
			"fullUrl": "https://fhir.thinkmd.tech/Observation/nasalflaringorretractions-b4a06597-325c-4278-8ac6-dbcf09c6cb93",
			"resource": {
				"resourceType": "Observation",
				"id": "nasalflaringorretractions-b4a06597-325c-4278-8ac6-dbcf09c6cb93",
				"text": {
					"div": "<div class='fhirObservation'><span>Observation</span> - <span>nasal_flaring_or_retractions</span> : <span>yes</span></div>",
					"status": "additional"
				},
				"effectiveDateTime": "2020-12-09T18:14:37.463Z",
				"code": {
					"coding": [
						{
							"system": "http://snomed.info/sct",
							"code": "248568003",
							"display": "Nasal flaring"
						}
					]
				},
				"status": "preliminary",
				"valueCodeableConcept": {
					"coding": [
						{
							"system": "https://fhir.loinc.org/ValueSet/LL3044-6",
							"code": "Y",
							"display": "yes"
						}
					]
				},
				"subject": {
					"reference": "Patient/ThinkMD-16c03e36-287e-4846-8c39-17dd5c351ae3"
				},
				"performer": [
					{
						"reference": "Practitioner/123"
					}
				],
				"encounter": {
					"reference": "Encounter/b4a06597-325c-4278-8ac6-dbcf09c6cb93"
				}
			},
			"request": {
				"method": "PUT",
				"url": "Observation/nasalflaringorretractions-b4a06597-325c-4278-8ac6-dbcf09c6cb93"
			}
		},
		{
			"fullUrl": "https://fhir.thinkmd.tech/Observation/chestindrawing-b4a06597-325c-4278-8ac6-dbcf09c6cb93",
			"resource": {
				"resourceType": "Observation",
				"id": "chestindrawing-b4a06597-325c-4278-8ac6-dbcf09c6cb93",
				"text": {
					"div": "<div class='fhirObservation'><span>Observation</span> - <span>chest_indrawing</span> : <span>yes</span></div>",
					"status": "additional"
				},
				"effectiveDateTime": "2020-12-09T18:14:37.463Z",
				"code": {
					"coding": [
						{
							"system": "http://snomed.info/sct",
							"code": "8453006",
							"display": "Subcostal recession"
						}
					]
				},
				"status": "preliminary",
				"valueCodeableConcept": {
					"coding": [
						{
							"system": "https://fhir.loinc.org/ValueSet/LL3044-6",
							"code": "Y",
							"display": "yes"
						}
					]
				},
				"subject": {
					"reference": "Patient/ThinkMD-16c03e36-287e-4846-8c39-17dd5c351ae3"
				},
				"performer": [
					{
						"reference": "Practitioner/123"
					}
				],
				"encounter": {
					"reference": "Encounter/b4a06597-325c-4278-8ac6-dbcf09c6cb93"
				}
			},
			"request": {
				"method": "PUT",
				"url": "Observation/chestindrawing-b4a06597-325c-4278-8ac6-dbcf09c6cb93"
			}
		},
		{
			"fullUrl": "https://fhir.thinkmd.tech/Observation/headbobbing-b4a06597-325c-4278-8ac6-dbcf09c6cb93",
			"resource": {
				"resourceType": "Observation",
				"id": "headbobbing-b4a06597-325c-4278-8ac6-dbcf09c6cb93",
				"text": {
					"div": "<div class='fhirObservation'><span>Observation</span> - <span>head_bobbing</span> : <span>yes</span></div>",
					"status": "additional"
				},
				"effectiveDateTime": "2020-12-09T18:14:37.463Z",
				"code": {
					"coding": [
						{
							"system": "http://snomed.info/sct",
							"code": "248568003",
							"display": "Head bobbing"
						}
					]
				},
				"status": "preliminary",
				"valueCodeableConcept": {
					"coding": [
						{
							"system": "https://fhir.loinc.org/ValueSet/LL3044-6",
							"code": "Y",
							"display": "yes"
						}
					]
				},
				"subject": {
					"reference": "Patient/ThinkMD-16c03e36-287e-4846-8c39-17dd5c351ae3"
				},
				"performer": [
					{
						"reference": "Practitioner/123"
					}
				],
				"encounter": {
					"reference": "Encounter/b4a06597-325c-4278-8ac6-dbcf09c6cb93"
				}
			},
			"request": {
				"method": "PUT",
				"url": "Observation/headbobbing-b4a06597-325c-4278-8ac6-dbcf09c6cb93"
			}
		},
		{
			"fullUrl": "https://fhir.thinkmd.tech/Observation/wheezing-b4a06597-325c-4278-8ac6-dbcf09c6cb93",
			"resource": {
				"resourceType": "Observation",
				"id": "wheezing-b4a06597-325c-4278-8ac6-dbcf09c6cb93",
				"text": {
					"div": "<div class='fhirObservation'><span>Observation</span> - <span>wheezing</span> : <span>yes</span></div>",
					"status": "additional"
				},
				"effectiveDateTime": "2020-12-09T18:14:37.463Z",
				"code": {
					"coding": [
						{
							"system": "http://snomed.info/sct",
							"code": "56018004",
							"display": "wheezing"
						}
					]
				},
				"status": "preliminary",
				"valueCodeableConcept": {
					"coding": [
						{
							"system": "https://fhir.loinc.org/ValueSet/LL3044-6",
							"code": "Y",
							"display": "yes"
						}
					]
				},
				"subject": {
					"reference": "Patient/ThinkMD-16c03e36-287e-4846-8c39-17dd5c351ae3"
				},
				"performer": [
					{
						"reference": "Practitioner/123"
					}
				],
				"encounter": {
					"reference": "Encounter/b4a06597-325c-4278-8ac6-dbcf09c6cb93"
				}
			},
			"request": {
				"method": "PUT",
				"url": "Observation/wheezing-b4a06597-325c-4278-8ac6-dbcf09c6cb93"
			}
		},
		{
			"fullUrl": "https://fhir.thinkmd.tech/Observation/painwhenmovingneck-b4a06597-325c-4278-8ac6-dbcf09c6cb93",
			"resource": {
				"resourceType": "Observation",
				"id": "painwhenmovingneck-b4a06597-325c-4278-8ac6-dbcf09c6cb93",
				"text": {
					"div": "<div class='fhirObservation'><span>Observation</span> - <span>pain_when_moving_neck</span> : <span>yes</span></div>",
					"status": "additional"
				},
				"effectiveDateTime": "2020-12-09T18:14:37.463Z",
				"code": {
					"coding": [
						{
							"system": "http://snomed.info/sct",
							"code": "81680005",
							"display": "neck pain"
						}
					]
				},
				"status": "preliminary",
				"valueCodeableConcept": {
					"coding": [
						{
							"system": "https://fhir.loinc.org/ValueSet/LL3044-6",
							"code": "Y",
							"display": "yes"
						}
					]
				},
				"subject": {
					"reference": "Patient/ThinkMD-16c03e36-287e-4846-8c39-17dd5c351ae3"
				},
				"performer": [
					{
						"reference": "Practitioner/123"
					}
				],
				"encounter": {
					"reference": "Encounter/b4a06597-325c-4278-8ac6-dbcf09c6cb93"
				}
			},
			"request": {
				"method": "PUT",
				"url": "Observation/painwhenmovingneck-b4a06597-325c-4278-8ac6-dbcf09c6cb93"
			}
		},
		{
			"fullUrl": "https://fhir.thinkmd.tech/Observation/rash-b4a06597-325c-4278-8ac6-dbcf09c6cb93",
			"resource": {
				"resourceType": "Observation",
				"id": "rash-b4a06597-325c-4278-8ac6-dbcf09c6cb93",
				"text": {
					"div": "<div class='fhirObservation'><span>Observation</span> - <span>rash</span> : <span>yes</span></div>",
					"status": "additional"
				},
				"effectiveDateTime": "2020-12-09T18:14:37.463Z",
				"code": {
					"coding": [
						{
							"system": "http://snomed.info/sct",
							"code": "89757007",
							"display": "Macular rash"
						}
					]
				},
				"status": "preliminary",
				"valueCodeableConcept": {
					"coding": [
						{
							"system": "https://fhir.loinc.org/ValueSet/LL3044-6",
							"code": "Y",
							"display": "yes"
						}
					]
				},
				"subject": {
					"reference": "Patient/ThinkMD-16c03e36-287e-4846-8c39-17dd5c351ae3"
				},
				"performer": [
					{
						"reference": "Practitioner/123"
					}
				],
				"encounter": {
					"reference": "Encounter/b4a06597-325c-4278-8ac6-dbcf09c6cb93"
				}
			},
			"request": {
				"method": "PUT",
				"url": "Observation/rash-b4a06597-325c-4278-8ac6-dbcf09c6cb93"
			}
		},
		{
			"fullUrl": "https://fhir.thinkmd.tech/Observation/skinconcern-b4a06597-325c-4278-8ac6-dbcf09c6cb93",
			"resource": {
				"resourceType": "Observation",
				"id": "skinconcern-b4a06597-325c-4278-8ac6-dbcf09c6cb93",
				"text": {
					"div": "<div class='fhirObservation'><span>Observation</span> - <span>skin_concern</span> : <span>yes</span></div>",
					"status": "additional"
				},
				"effectiveDateTime": "2020-12-09T18:14:37.463Z",
				"code": {
					"coding": [
						{
							"system": "http://snomed.info/sct",
							"code": "95320005",
							"display": "Dermatopathy"
						}
					]
				},
				"status": "preliminary",
				"valueCodeableConcept": {
					"coding": [
						{
							"system": "https://fhir.loinc.org/ValueSet/LL3044-6",
							"code": "Y",
							"display": "yes"
						}
					]
				},
				"subject": {
					"reference": "Patient/ThinkMD-16c03e36-287e-4846-8c39-17dd5c351ae3"
				},
				"performer": [
					{
						"reference": "Practitioner/123"
					}
				],
				"encounter": {
					"reference": "Encounter/b4a06597-325c-4278-8ac6-dbcf09c6cb93"
				}
			},
			"request": {
				"method": "PUT",
				"url": "Observation/skinconcern-b4a06597-325c-4278-8ac6-dbcf09c6cb93"
			}
		},
		{
			"fullUrl": "https://fhir.thinkmd.tech/Observation/skinred-b4a06597-325c-4278-8ac6-dbcf09c6cb93",
			"resource": {
				"resourceType": "Observation",
				"id": "skinred-b4a06597-325c-4278-8ac6-dbcf09c6cb93",
				"text": {
					"div": "<div class='fhirObservation'><span>Observation</span> - <span>skin_red</span> : <span>no</span></div>",
					"status": "additional"
				},
				"effectiveDateTime": "2020-12-09T18:14:37.463Z",
				"code": {
					"coding": [
						{
							"system": "http://snomed.info/sct",
							"code": "164424003",
							"display": "On examination - skin red"
						}
					]
				},
				"status": "preliminary",
				"valueCodeableConcept": {
					"coding": [
						{
							"system": "https://fhir.loinc.org/ValueSet/LL3044-6",
							"code": "N",
							"display": "no"
						}
					]
				},
				"subject": {
					"reference": "Patient/ThinkMD-16c03e36-287e-4846-8c39-17dd5c351ae3"
				},
				"performer": [
					{
						"reference": "Practitioner/123"
					}
				],
				"encounter": {
					"reference": "Encounter/b4a06597-325c-4278-8ac6-dbcf09c6cb93"
				}
			},
			"request": {
				"method": "PUT",
				"url": "Observation/skinred-b4a06597-325c-4278-8ac6-dbcf09c6cb93"
			}
		},
		{
			"fullUrl": "https://fhir.thinkmd.tech/Observation/skindischarge-b4a06597-325c-4278-8ac6-dbcf09c6cb93",
			"resource": {
				"resourceType": "Observation",
				"id": "skindischarge-b4a06597-325c-4278-8ac6-dbcf09c6cb93",
				"text": {
					"div": "<div class='fhirObservation'><span>Observation</span> - <span>skin_discharge</span> : <span>no</span></div>",
					"status": "additional"
				},
				"effectiveDateTime": "2020-12-09T18:14:37.463Z",
				"code": {
					"coding": [
						{
							"system": "http://snomed.info/sct",
							"code": "297970000",
							"display": "Skin Discharge"
						}
					]
				},
				"status": "preliminary",
				"valueCodeableConcept": {
					"coding": [
						{
							"system": "https://fhir.loinc.org/ValueSet/LL3044-6",
							"code": "N",
							"display": "no"
						}
					]
				},
				"subject": {
					"reference": "Patient/ThinkMD-16c03e36-287e-4846-8c39-17dd5c351ae3"
				},
				"performer": [
					{
						"reference": "Practitioner/123"
					}
				],
				"encounter": {
					"reference": "Encounter/b4a06597-325c-4278-8ac6-dbcf09c6cb93"
				}
			},
			"request": {
				"method": "PUT",
				"url": "Observation/skindischarge-b4a06597-325c-4278-8ac6-dbcf09c6cb93"
			}
		},
		{
			"fullUrl": "https://fhir.thinkmd.tech/Observation/skinswelling-b4a06597-325c-4278-8ac6-dbcf09c6cb93",
			"resource": {
				"resourceType": "Observation",
				"id": "skinswelling-b4a06597-325c-4278-8ac6-dbcf09c6cb93",
				"text": {
					"div": "<div class='fhirObservation'><span>Observation</span> - <span>skin_swelling</span> : <span>yes</span></div>",
					"status": "additional"
				},
				"effectiveDateTime": "2020-12-09T18:14:37.463Z",
				"code": {
					"coding": [
						{
							"system": "http://snomed.info/sct",
							"code": "300886007",
							"display": "Swelling of skin"
						}
					]
				},
				"status": "preliminary",
				"valueCodeableConcept": {
					"coding": [
						{
							"system": "https://fhir.loinc.org/ValueSet/LL3044-6",
							"code": "Y",
							"display": "yes"
						}
					]
				},
				"subject": {
					"reference": "Patient/ThinkMD-16c03e36-287e-4846-8c39-17dd5c351ae3"
				},
				"performer": [
					{
						"reference": "Practitioner/123"
					}
				],
				"encounter": {
					"reference": "Encounter/b4a06597-325c-4278-8ac6-dbcf09c6cb93"
				}
			},
			"request": {
				"method": "PUT",
				"url": "Observation/skinswelling-b4a06597-325c-4278-8ac6-dbcf09c6cb93"
			}
		},
		{
			"fullUrl": "https://fhir.thinkmd.tech/Observation/skinpain-b4a06597-325c-4278-8ac6-dbcf09c6cb93",
			"resource": {
				"resourceType": "Observation",
				"id": "skinpain-b4a06597-325c-4278-8ac6-dbcf09c6cb93",
				"text": {
					"div": "<div class='fhirObservation'><span>Observation</span> - <span>skin_pain</span> : <span>yes</span></div>",
					"status": "additional"
				},
				"effectiveDateTime": "2020-12-09T18:14:37.463Z",
				"code": {
					"coding": [
						{
							"system": "http://snomed.info/sct",
							"code": "301364008",
							"display": "Pain of skin"
						}
					]
				},
				"status": "preliminary",
				"valueCodeableConcept": {
					"coding": [
						{
							"system": "https://fhir.loinc.org/ValueSet/LL3044-6",
							"code": "Y",
							"display": "yes"
						}
					]
				},
				"subject": {
					"reference": "Patient/ThinkMD-16c03e36-287e-4846-8c39-17dd5c351ae3"
				},
				"performer": [
					{
						"reference": "Practitioner/123"
					}
				],
				"encounter": {
					"reference": "Encounter/b4a06597-325c-4278-8ac6-dbcf09c6cb93"
				}
			},
			"request": {
				"method": "PUT",
				"url": "Observation/skinpain-b4a06597-325c-4278-8ac6-dbcf09c6cb93"
			}
		},
		{
			"fullUrl": "https://fhir.thinkmd.tech/Observation/boil-b4a06597-325c-4278-8ac6-dbcf09c6cb93",
			"resource": {
				"resourceType": "Observation",
				"id": "boil-b4a06597-325c-4278-8ac6-dbcf09c6cb93",
				"text": {
					"div": "<div class='fhirObservation'><span>Observation</span> - <span>boil</span> : <span>yes</span></div>",
					"status": "additional"
				},
				"effectiveDateTime": "2020-12-09T18:14:37.463Z",
				"code": {
					"coding": [
						{
							"system": "http://snomed.info/sct",
							"code": "416675009",
							"display": "boil"
						}
					]
				},
				"status": "preliminary",
				"valueCodeableConcept": {
					"coding": [
						{
							"system": "https://fhir.loinc.org/ValueSet/LL3044-6",
							"code": "Y",
							"display": "yes"
						}
					]
				},
				"subject": {
					"reference": "Patient/ThinkMD-16c03e36-287e-4846-8c39-17dd5c351ae3"
				},
				"performer": [
					{
						"reference": "Practitioner/123"
					}
				],
				"encounter": {
					"reference": "Encounter/b4a06597-325c-4278-8ac6-dbcf09c6cb93"
				}
			},
			"request": {
				"method": "PUT",
				"url": "Observation/boil-b4a06597-325c-4278-8ac6-dbcf09c6cb93"
			}
		},
		{
			"fullUrl": "https://fhir.thinkmd.tech/Observation/impetigo-b4a06597-325c-4278-8ac6-dbcf09c6cb93",
			"resource": {
				"resourceType": "Observation",
				"id": "impetigo-b4a06597-325c-4278-8ac6-dbcf09c6cb93",
				"text": {
					"div": "<div class='fhirObservation'><span>Observation</span> - <span>impetigo</span> : <span>yes</span></div>",
					"status": "additional"
				},
				"effectiveDateTime": "2020-12-09T18:14:37.463Z",
				"code": {
					"coding": [
						{
							"system": "http://snomed.info/sct",
							"code": "48055004",
							"display": "Pustular eruption"
						}
					]
				},
				"status": "preliminary",
				"valueCodeableConcept": {
					"coding": [
						{
							"system": "https://fhir.loinc.org/ValueSet/LL3044-6",
							"code": "Y",
							"display": "yes"
						}
					]
				},
				"subject": {
					"reference": "Patient/ThinkMD-16c03e36-287e-4846-8c39-17dd5c351ae3"
				},
				"performer": [
					{
						"reference": "Practitioner/123"
					}
				],
				"encounter": {
					"reference": "Encounter/b4a06597-325c-4278-8ac6-dbcf09c6cb93"
				}
			},
			"request": {
				"method": "PUT",
				"url": "Observation/impetigo-b4a06597-325c-4278-8ac6-dbcf09c6cb93"
			}
		},
		{
			"fullUrl": "https://fhir.thinkmd.tech/Observation/ringworm-b4a06597-325c-4278-8ac6-dbcf09c6cb93",
			"resource": {
				"resourceType": "Observation",
				"id": "ringworm-b4a06597-325c-4278-8ac6-dbcf09c6cb93",
				"text": {
					"div": "<div class='fhirObservation'><span>Observation</span> - <span>ringworm</span> : <span>yes</span></div>",
					"status": "additional"
				},
				"effectiveDateTime": "2020-12-09T18:14:37.463Z",
				"code": {
					"coding": [
						{
							"system": "http://snomed.info/sct",
							"code": "724877007",
							"display": "ringworm"
						}
					]
				},
				"status": "preliminary",
				"valueCodeableConcept": {
					"coding": [
						{
							"system": "http://terminology.hl7.org/CodeSystem/v2-0136",
							"code": "260399008",
							"display": "yes"
						}
					]
				},
				"subject": {
					"reference": "Patient/ThinkMD-16c03e36-287e-4846-8c39-17dd5c351ae3"
				},
				"performer": [
					{
						"reference": "Practitioner/123"
					}
				],
				"encounter": {
					"reference": "Encounter/b4a06597-325c-4278-8ac6-dbcf09c6cb93"
				}
			},
			"request": {
				"method": "PUT",
				"url": "Observation/ringworm-b4a06597-325c-4278-8ac6-dbcf09c6cb93"
			}
		},
		{
			"fullUrl": "https://fhir.thinkmd.tech/Observation/chickenpox-b4a06597-325c-4278-8ac6-dbcf09c6cb93",
			"resource": {
				"resourceType": "Observation",
				"id": "chickenpox-b4a06597-325c-4278-8ac6-dbcf09c6cb93",
				"text": {
					"div": "<div class='fhirObservation'><span>Observation</span> - <span>chickenpox</span> : <span>yes</span></div>",
					"status": "additional"
				},
				"effectiveDateTime": "2020-12-09T18:14:37.463Z",
				"code": {
					"coding": [
						{
							"system": "http://snomed.info/sct",
							"code": "53788007",
							"display": "Vesicular rash"
						}
					]
				},
				"status": "preliminary",
				"valueCodeableConcept": {
					"coding": [
						{
							"system": "https://fhir.loinc.org/ValueSet/LL3044-6",
							"code": "Y",
							"display": "yes"
						}
					]
				},
				"subject": {
					"reference": "Patient/ThinkMD-16c03e36-287e-4846-8c39-17dd5c351ae3"
				},
				"performer": [
					{
						"reference": "Practitioner/123"
					}
				],
				"encounter": {
					"reference": "Encounter/b4a06597-325c-4278-8ac6-dbcf09c6cb93"
				}
			},
			"request": {
				"method": "PUT",
				"url": "Observation/chickenpox-b4a06597-325c-4278-8ac6-dbcf09c6cb93"
			}
		},
		{
			"fullUrl": "https://fhir.thinkmd.tech/Observation/swellingofthefeet-b4a06597-325c-4278-8ac6-dbcf09c6cb93",
			"resource": {
				"resourceType": "Observation",
				"id": "swellingofthefeet-b4a06597-325c-4278-8ac6-dbcf09c6cb93",
				"text": {
					"div": "<div class='fhirObservation'><span>Observation</span> - <span>swelling_of_the_feet</span> : <span>yes</span></div>",
					"status": "additional"
				},
				"effectiveDateTime": "2020-12-09T18:14:37.463Z",
				"code": {
					"coding": [
						{
							"system": "http://snomed.info/sct",
							"code": "762917000",
							"display": "Swelling of bilateral feet"
						}
					]
				},
				"status": "preliminary",
				"valueCodeableConcept": {
					"coding": [
						{
							"system": "https://fhir.loinc.org/ValueSet/LL3044-6",
							"code": "Y",
							"display": "yes"
						}
					]
				},
				"subject": {
					"reference": "Patient/ThinkMD-16c03e36-287e-4846-8c39-17dd5c351ae3"
				},
				"performer": [
					{
						"reference": "Practitioner/123"
					}
				],
				"encounter": {
					"reference": "Encounter/b4a06597-325c-4278-8ac6-dbcf09c6cb93"
				}
			},
			"request": {
				"method": "PUT",
				"url": "Observation/swellingofthefeet-b4a06597-325c-4278-8ac6-dbcf09c6cb93"
			}
		},
		{
			"fullUrl": "https://fhir.thinkmd.tech/Observation/respiratoryratepercentile-b4a06597-325c-4278-8ac6-dbcf09c6cb93",
			"resource": {
				"resourceType": "Observation",
				"id": "respiratoryratepercentile-b4a06597-325c-4278-8ac6-dbcf09c6cb93",
				"text": {
					"div": "<div class='fhirObservation'><span>Observation</span> - <span>respiratory_rate_percentile</span> : <span>95 /min</span></div>",
					"status": "additional"
				},
				"effectiveDateTime": "2020-12-09T18:14:37.463Z",
				"code": {
					"coding": [
						{
							"system": "http://snomed.info/sct",
							"code": "86290005",
							"display": "Respiratory rate"
						}
					]
				},
				"status": "preliminary",
				"valueQuantity": {
					"system": "http://unitsofmeasure.org",
					"unit": "breaths/minute",
					"code": "/min",
					"value": 95
				},
				"subject": {
					"reference": "Patient/ThinkMD-16c03e36-287e-4846-8c39-17dd5c351ae3"
				},
				"performer": [
					{
						"reference": "Practitioner/123"
					}
				],
				"encounter": {
					"reference": "Encounter/b4a06597-325c-4278-8ac6-dbcf09c6cb93"
				}
			},
			"request": {
				"method": "PUT",
				"url": "Observation/respiratoryratepercentile-b4a06597-325c-4278-8ac6-dbcf09c6cb93"
			}
		},
		{
			"fullUrl": "https://fhir.thinkmd.tech/Observation/heartratepercentile-b4a06597-325c-4278-8ac6-dbcf09c6cb93",
			"resource": {
				"resourceType": "Observation",
				"id": "heartratepercentile-b4a06597-325c-4278-8ac6-dbcf09c6cb93",
				"text": {
					"div": "<div class='fhirObservation'><span>Observation</span> - <span>heart_rate_percentile</span> : <span>95 /min</span></div>",
					"status": "additional"
				},
				"effectiveDateTime": "2020-12-09T18:14:37.463Z",
				"code": {
					"coding": [
						{
							"system": "http://snomed.info/sct",
							"code": "86290005",
							"display": "Respiratory rate"
						}
					]
				},
				"status": "preliminary",
				"valueQuantity": {
					"system": "http://unitsofmeasure.org",
					"unit": "breaths/minute",
					"code": "/min",
					"value": 95
				},
				"subject": {
					"reference": "Patient/ThinkMD-16c03e36-287e-4846-8c39-17dd5c351ae3"
				},
				"performer": [
					{
						"reference": "Practitioner/123"
					}
				],
				"encounter": {
					"reference": "Encounter/b4a06597-325c-4278-8ac6-dbcf09c6cb93"
				}
			},
			"request": {
				"method": "PUT",
				"url": "Observation/heartratepercentile-b4a06597-325c-4278-8ac6-dbcf09c6cb93"
			}
		},
		{
			"fullUrl": "https://fhir.thinkmd.tech/Observation/weightpercentile-b4a06597-325c-4278-8ac6-dbcf09c6cb93",
			"resource": {
				"resourceType": "Observation",
				"id": "weightpercentile-b4a06597-325c-4278-8ac6-dbcf09c6cb93",
				"text": {
					"div": "<div class='fhirObservation'><span>Observation</span> - <span>weight_percentile</span> : <span>99 /min</span></div>",
					"status": "additional"
				},
				"effectiveDateTime": "2020-12-09T18:14:37.463Z",
				"code": {
					"coding": [
						{
							"system": "http://snomed.info/sct",
							"code": "86290005",
							"display": "Respiratory rate"
						}
					]
				},
				"status": "preliminary",
				"valueQuantity": {
					"system": "http://unitsofmeasure.org",
					"unit": "breaths/minute",
					"code": "/min",
					"value": 99
				},
				"subject": {
					"reference": "Patient/ThinkMD-16c03e36-287e-4846-8c39-17dd5c351ae3"
				},
				"performer": [
					{
						"reference": "Practitioner/123"
					}
				],
				"encounter": {
					"reference": "Encounter/b4a06597-325c-4278-8ac6-dbcf09c6cb93"
				}
			},
			"request": {
				"method": "PUT",
				"url": "Observation/weightpercentile-b4a06597-325c-4278-8ac6-dbcf09c6cb93"
			}
		},
		{
			"fullUrl": "https://fhir.thinkmd.tech/Observation/coughing-b4a06597-325c-4278-8ac6-dbcf09c6cb93",
			"resource": {
				"resourceType": "Observation",
				"id": "coughing-b4a06597-325c-4278-8ac6-dbcf09c6cb93",
				"text": {
					"div": "<div class='fhirObservation'><span>Observation</span> - <span>coughing</span> : <span>mild</span></div>",
					"status": "additional"
				},
				"effectiveDateTime": "2020-12-09T18:14:37.463Z",
				"code": {
					"coding": [
						{
							"system": "http://snomed.info/sct",
							"code": "263731006",
							"display": "Coughing"
						}
					]
				},
				"status": "preliminary",
				"valueCodeableConcept": {
					"coding": [
						{
							"system": "",
							"display": "mild"
						}
					]
				},
				"subject": {
					"reference": "Patient/ThinkMD-16c03e36-287e-4846-8c39-17dd5c351ae3"
				},
				"performer": [
					{
						"reference": "Practitioner/123"
					}
				],
				"encounter": {
					"reference": "Encounter/b4a06597-325c-4278-8ac6-dbcf09c6cb93"
				}
			},
			"request": {
				"method": "PUT",
				"url": "Observation/coughing-b4a06597-325c-4278-8ac6-dbcf09c6cb93"
			}
		},
		{
			"fullUrl": "https://fhir.thinkmd.tech/Observation/diarrhea-b4a06597-325c-4278-8ac6-dbcf09c6cb93",
			"resource": {
				"resourceType": "Observation",
				"id": "diarrhea-b4a06597-325c-4278-8ac6-dbcf09c6cb93",
				"text": {
					"div": "<div class='fhirObservation'><span>Observation</span> - <span>diarrhea</span> : <span>mild</span></div>",
					"status": "additional"
				},
				"effectiveDateTime": "2020-12-09T18:14:37.463Z",
				"code": {
					"coding": [
						{
							"system": "http://snomed.info/sct",
							"code": "267060006",
							"display": "Diarrhea symptom"
						}
					]
				},
				"status": "preliminary",
				"valueCodeableConcept": {
					"coding": [
						{
							"system": "",
							"display": "mild"
						}
					]
				},
				"subject": {
					"reference": "Patient/ThinkMD-16c03e36-287e-4846-8c39-17dd5c351ae3"
				},
				"performer": [
					{
						"reference": "Practitioner/123"
					}
				],
				"encounter": {
					"reference": "Encounter/b4a06597-325c-4278-8ac6-dbcf09c6cb93"
				}
			},
			"request": {
				"method": "PUT",
				"url": "Observation/diarrhea-b4a06597-325c-4278-8ac6-dbcf09c6cb93"
			}
		},
		{
			"fullUrl": "https://fhir.thinkmd.tech/Observation/vomitingseverity-b4a06597-325c-4278-8ac6-dbcf09c6cb93",
			"resource": {
				"resourceType": "Observation",
				"id": "vomitingseverity-b4a06597-325c-4278-8ac6-dbcf09c6cb93",
				"text": {
					"div": "<div class='fhirObservation'><span>Observation</span> - <span>vomiting_severity</span> : <span>mild</span></div>",
					"status": "additional"
				},
				"effectiveDateTime": "2020-12-09T18:14:37.463Z",
				"code": {
					"coding": [
						{
							"system": "http://snomed.info/sct",
							"code": "249497008",
							"display": "Vomiting severity"
						}
					]
				},
				"status": "preliminary",
				"valueCodeableConcept": {
					"coding": [
						{
							"system": "http://hl7.org/fhir/ValueSet/duration-units",
							"display": "mild"
						}
					]
				},
				"subject": {
					"reference": "Patient/ThinkMD-16c03e36-287e-4846-8c39-17dd5c351ae3"
				},
				"performer": [
					{
						"reference": "Practitioner/123"
					}
				],
				"encounter": {
					"reference": "Encounter/b4a06597-325c-4278-8ac6-dbcf09c6cb93"
				}
			},
			"request": {
				"method": "PUT",
				"url": "Observation/vomitingseverity-b4a06597-325c-4278-8ac6-dbcf09c6cb93"
			}
		},
		{
			"fullUrl": "https://fhir.thinkmd.tech/Observation/urinating-b4a06597-325c-4278-8ac6-dbcf09c6cb93",
			"resource": {
				"resourceType": "Observation",
				"id": "urinating-b4a06597-325c-4278-8ac6-dbcf09c6cb93",
				"text": {
					"div": "<div class='fhirObservation'><span>Observation</span> - <span>urinating</span> : <span>less</span></div>",
					"status": "additional"
				},
				"effectiveDateTime": "2020-12-09T18:14:37.463Z",
				"code": {
					"coding": [
						{
							"system": "http://snomed.info/sct",
							"code": "364198000",
							"display": "Frequency of urination"
						}
					]
				},
				"status": "preliminary",
				"valueCodeableConcept": {
					"coding": [
						{
							"system": "",
							"display": "less"
						}
					]
				},
				"subject": {
					"reference": "Patient/ThinkMD-16c03e36-287e-4846-8c39-17dd5c351ae3"
				},
				"performer": [
					{
						"reference": "Practitioner/123"
					}
				],
				"encounter": {
					"reference": "Encounter/b4a06597-325c-4278-8ac6-dbcf09c6cb93"
				}
			},
			"request": {
				"method": "PUT",
				"url": "Observation/urinating-b4a06597-325c-4278-8ac6-dbcf09c6cb93"
			}
		},
		{
			"fullUrl": "https://fhir.thinkmd.tech/Patient/ThinkMD-16c03e36-287e-4846-8c39-17dd5c351ae3",
			"resource": {
				"resourceType": "Patient",
				"id": "ThinkMD-16c03e36-287e-4846-8c39-17dd5c351ae3",
				"text": {
					"status": "generated",
					"div": "<div class='fhirPatient' style='font-size: 16px;font-family: Roboto,sans-serif;line-height: 1.5;box-sizing: inherit;background-repeat: no-repeat;padding: 0;margin: 0;display: block;max-width: 100%;outline:none;text-decoration: none;transition-property: box-shadow,opacity,-webkit-box-shadow;overflow-wrap: break-word;position: relative;white-space: normal;transition: box-shadow.28s cubic-bezier(.4,0,.2,1),-webkit-box-shadow .28s cubic-bezier(.4,0,.2,1);will-change: box-shadow;box-shadow: 0 3px 1px -2px rgba(0,0,0,.2),0 2px 2px 0 rgba(0,0,0,.14),0 1px5px 0 rgba(0,0,0,.12);color: rgba(0,0,0,.87);margin-bottom: 8px!important;background-color: #e1ded4 !important;border-color: #e1ded4 !important;border-radius: 4px;'><div><span style='text-rendering: optimizeLegibility;font-family: Roboto,sans-serif;overflow-wrap: break-word;white-space: normal;font-size: 1.25rem;font-weight: 500;letter-spacing:.0125em;line-height: 2rem;word-break: break-all;color: #424242!important;caret-color: #424242!important;box-sizing: inherit;background-repeat: no-repeat;padding: 0;margin: 0;' ></span></div><hr style='font-size: 16px;font-family: Roboto,sans-serif;line-height: 1.5;overflow-wrap: break-word;white-space: normal;color: rgba(0,0,0,.87);box-sizing: inherit;background-repeat: no-repeat;padding: 0;margin: 0;display: block;max-width: 100%;height: 0;max-height: 0;border: solid;border-width: thin 0 0 0;transition: inherit;border-color:rgba(0,0,0,.12);margin-right: 4px!important;margin-left: 4px!important;'></hr><div><span style='text-rendering: optimizeLegibility;font-family: Roboto,sans-serif;overflow-wrap: break-word;white-space: normal;font-size: .875rem;font-weight: 400;line-height: 1.375rem;letter-spacing: .0071428571em;color: rgba(0,0,0,.6);box-sizing: inherit;background-repeat: no-repeat;padding: 0;margin: 0;'>Patient: </span></div></div>"
				},
				"active": true,
				"gender": "male",
				"identifier": [
					{
						"system": "urn:oid:2.16.840.1.113883.19.5",
						"type": {
							"coding": [
								{
									"code": "MR",
									"display": null,
									"system": "http://terminology.hl7.org/CodeSystem/v2-0203"
								}
							]
						},
						"use": "usual",
						"value": ""
					}
				],
				"name": [
					{
						"text": ""
					}
				],
				"communication": [
					{
						"language": {
							"coding": [
								{
									"system": "urn:ietf:bcp:47",
									"code": "en-US"
								}
							],
							"text": "en-US"
						}
					}
				]
			},
			"request": {
				"method": "PUT",
				"url": "Patient/ThinkMD-16c03e36-287e-4846-8c39-17dd5c351ae3"
			}
		},
		{
			"fullUrl": "https://fhir.thinkmd.tech/Practitioner/123",
			"resource": {
				"resourceType": "Practitioner",
				"id": "123",
				"text": {
					"status": "generated",
					"div": "<div class='fhirPractitioner' style='font-size: 16px;font-family: Roboto,sans-serif;line-height: 1.5;box-sizing: inherit;background-repeat: no-repeat;padding: 0;margin: 0;display: block;max-width: 100%;outline:none;text-decoration: none;transition-property: box-shadow,opacity,-webkit-box-shadow;overflow-wrap: break-word;position: relative;white-space: normal;transition: box-shadow.28s cubic-bezier(.4,0,.2,1),-webkit-box-shadow .28s cubic-bezier(.4,0,.2,1);will-change: box-shadow;box-shadow: 0 3px 1px -2px rgba(0,0,0,.2),0 2px 2px 0 rgba(0,0,0,.14),0 1px5px 0 rgba(0,0,0,.12);color: rgba(0,0,0,.87);margin-bottom: 8px!important;background-color: #e1ded4 !important;border-color: #e1ded4 !important;border-radius: 4px;'><div><span style='text-rendering: optimizeLegibility;font-family: Roboto,sans-serif;overflow-wrap: break-word;white-space: normal;font-size: 1.25rem;font-weight: 500;letter-spacing:.0125em;line-height: 2rem;word-break: break-all;color: #424242!important;caret-color: #424242!important;box-sizing: inherit;background-repeat: no-repeat;padding: 0;margin: 0;' ></span></div><hr style='font-size: 16px;font-family: Roboto,sans-serif;line-height: 1.5;overflow-wrap: break-word;white-space: normal;color: rgba(0,0,0,.87);box-sizing: inherit;background-repeat: no-repeat;padding: 0;margin: 0;display: block;max-width: 100%;height: 0;max-height: 0;border: solid;border-width: thin 0 0 0;transition: inherit;border-color:rgba(0,0,0,.12);margin-right: 4px!important;margin-left: 4px!important;'></hr><div><span style='text-rendering: optimizeLegibility;font-family: Roboto,sans-serif;overflow-wrap: break-word;white-space: normal;font-size: .875rem;font-weight: 400;line-height: 1.375rem;letter-spacing: .0071428571em;color: rgba(0,0,0,.6);box-sizing: inherit;background-repeat: no-repeat;padding: 0;margin: 0;'>Practitioner: 123</span></div></div>"
				},
				"active": true,
				"identifier": [
					{
						"value": "123"
					}
				],
				"name": []
			},
			"request": {
				"method": "PUT",
				"url": "Practitioner/123"
			}
		},
		{
			"fullUrl": "https://fhir.thinkmd.tech/MedicationRequest/oxygen-b4a06597-325c-4278-8ac6-dbcf09c6cb93",
			"resource": {
				"resourceType": "MedicationRequest",
				"id": "oxygen-b4a06597-325c-4278-8ac6-dbcf09c6cb93",
				"status": "active",
				"intent": "proposal",
				"medicationCodeableConcept": {
					"coding": [
						{
							"display": "oxygen"
						}
					]
				},
				"dosageInstruction": [
					{
						"text": "If possible by oxygen mask with reservoir at 10-15L/min"
					}
				],
				"authoredOn": "2020-12-09T18:14:37.463Z",
				"subject": {
					"reference": "Patient/ThinkMD-16c03e36-287e-4846-8c39-17dd5c351ae3"
				},
				"requester": {
					"reference": "Practitioner/123"
				},
				"encounter": {
					"reference": "Encounter/b4a06597-325c-4278-8ac6-dbcf09c6cb93"
				}
			},
			"request": {
				"method": "PUT",
				"url": "MedicationRequest/oxygen-b4a06597-325c-4278-8ac6-dbcf09c6cb93"
			}
		},
		{
			"fullUrl": "https://fhir.thinkmd.tech/MedicationRequest/amoxicillin-b4a06597-325c-4278-8ac6-dbcf09c6cb93",
			"resource": {
				"resourceType": "MedicationRequest",
				"id": "amoxicillin-b4a06597-325c-4278-8ac6-dbcf09c6cb93",
				"status": "active",
				"intent": "proposal",
				"medicationCodeableConcept": {
					"coding": [
						{
							"display": "amoxicillin"
						}
					]
				},
				"dosageInstruction": [
					{
						"text": "Start  2  dispersible tablet(s) Amoxicillin (250mg)   or 10 ml (250mg / 5ml syrup)    twice per day for 5 days "
					}
				],
				"authoredOn": "2020-12-09T18:14:37.463Z",
				"subject": {
					"reference": "Patient/ThinkMD-16c03e36-287e-4846-8c39-17dd5c351ae3"
				},
				"requester": {
					"reference": "Practitioner/123"
				},
				"encounter": {
					"reference": "Encounter/b4a06597-325c-4278-8ac6-dbcf09c6cb93"
				}
			},
			"request": {
				"method": "PUT",
				"url": "MedicationRequest/amoxicillin-b4a06597-325c-4278-8ac6-dbcf09c6cb93"
			}
		},
		{
			"fullUrl": "https://fhir.thinkmd.tech/MedicationRequest/orsbymouth-b4a06597-325c-4278-8ac6-dbcf09c6cb93",
			"resource": {
				"resourceType": "MedicationRequest",
				"id": "orsbymouth-b4a06597-325c-4278-8ac6-dbcf09c6cb93",
				"status": "active",
				"intent": "proposal",
				"medicationCodeableConcept": {
					"coding": [
						{
							"display": "ors_by_mouth"
						}
					]
				},
				"dosageInstruction": [
					{
						"text": "Start  3 1&#x2F;2 - 5 1&#x2F;2   cup(s)    or 840-1320 ml     every 4 hours until urine is clear or there is a normal number of wet diapers"
					}
				],
				"authoredOn": "2020-12-09T18:14:37.463Z",
				"subject": {
					"reference": "Patient/ThinkMD-16c03e36-287e-4846-8c39-17dd5c351ae3"
				},
				"requester": {
					"reference": "Practitioner/123"
				},
				"encounter": {
					"reference": "Encounter/b4a06597-325c-4278-8ac6-dbcf09c6cb93"
				}
			},
			"request": {
				"method": "PUT",
				"url": "MedicationRequest/orsbymouth-b4a06597-325c-4278-8ac6-dbcf09c6cb93"
			}
		},
		{
			"fullUrl": "https://fhir.thinkmd.tech/MedicationRequest/orsbymouthdiarrhea-b4a06597-325c-4278-8ac6-dbcf09c6cb93",
			"resource": {
				"resourceType": "MedicationRequest",
				"id": "orsbymouthdiarrhea-b4a06597-325c-4278-8ac6-dbcf09c6cb93",
				"status": "active",
				"intent": "proposal",
				"medicationCodeableConcept": {
					"coding": [
						{
							"display": "ors_by_mouth_diarrhea"
						}
					]
				},
				"dosageInstruction": [
					{
						"text": "Start    cup(s)     or     ml   "
					}
				],
				"authoredOn": "2020-12-09T18:14:37.463Z",
				"subject": {
					"reference": "Patient/ThinkMD-16c03e36-287e-4846-8c39-17dd5c351ae3"
				},
				"requester": {
					"reference": "Practitioner/123"
				},
				"encounter": {
					"reference": "Encounter/b4a06597-325c-4278-8ac6-dbcf09c6cb93"
				}
			},
			"request": {
				"method": "PUT",
				"url": "MedicationRequest/orsbymouthdiarrhea-b4a06597-325c-4278-8ac6-dbcf09c6cb93"
			}
		},
		{
			"fullUrl": "https://fhir.thinkmd.tech/MedicationRequest/zinc-b4a06597-325c-4278-8ac6-dbcf09c6cb93",
			"resource": {
				"resourceType": "MedicationRequest",
				"id": "zinc-b4a06597-325c-4278-8ac6-dbcf09c6cb93",
				"status": "active",
				"intent": "proposal",
				"medicationCodeableConcept": {
					"coding": [
						{
							"display": "zinc"
						}
					]
				},
				"dosageInstruction": [
					{
						"text": "    tablet(s)  (20mg) every  day for 10 days "
					}
				],
				"authoredOn": "2020-12-09T18:14:37.463Z",
				"subject": {
					"reference": "Patient/ThinkMD-16c03e36-287e-4846-8c39-17dd5c351ae3"
				},
				"requester": {
					"reference": "Practitioner/123"
				},
				"encounter": {
					"reference": "Encounter/b4a06597-325c-4278-8ac6-dbcf09c6cb93"
				}
			},
			"request": {
				"method": "PUT",
				"url": "MedicationRequest/zinc-b4a06597-325c-4278-8ac6-dbcf09c6cb93"
			}
		},
		{
			"fullUrl": "https://fhir.thinkmd.tech/MedicationRequest/ciprofloxicin-b4a06597-325c-4278-8ac6-dbcf09c6cb93",
			"resource": {
				"resourceType": "MedicationRequest",
				"id": "ciprofloxicin-b4a06597-325c-4278-8ac6-dbcf09c6cb93",
				"status": "active",
				"intent": "proposal",
				"medicationCodeableConcept": {
					"coding": [
						{
							"display": "ciprofloxicin"
						}
					]
				},
				"dosageInstruction": [
					{
						"text": "Start    tablet(s)  (250mg) 2 times a day for 3 days "
					}
				],
				"authoredOn": "2020-12-09T18:14:37.463Z",
				"subject": {
					"reference": "Patient/ThinkMD-16c03e36-287e-4846-8c39-17dd5c351ae3"
				},
				"requester": {
					"reference": "Practitioner/123"
				},
				"encounter": {
					"reference": "Encounter/b4a06597-325c-4278-8ac6-dbcf09c6cb93"
				}
			},
			"request": {
				"method": "PUT",
				"url": "MedicationRequest/ciprofloxicin-b4a06597-325c-4278-8ac6-dbcf09c6cb93"
			}
		},
		{
			"fullUrl": "https://fhir.thinkmd.tech/MedicationRequest/ceftriaxone-b4a06597-325c-4278-8ac6-dbcf09c6cb93",
			"resource": {
				"resourceType": "MedicationRequest",
				"id": "ceftriaxone-b4a06597-325c-4278-8ac6-dbcf09c6cb93",
				"status": "active",
				"intent": "proposal",
				"medicationCodeableConcept": {
					"coding": [
						{
							"display": "ceftriaxone"
						}
					]
				},
				"dosageInstruction": [
					{
						"text": "Start   610mg   Ceftriaxone 2 times a day  or  610mg   Cefotaxime 3 times a day or every 8 hours for 10 days"
					}
				],
				"authoredOn": "2020-12-09T18:14:37.463Z",
				"subject": {
					"reference": "Patient/ThinkMD-16c03e36-287e-4846-8c39-17dd5c351ae3"
				},
				"requester": {
					"reference": "Practitioner/123"
				},
				"encounter": {
					"reference": "Encounter/b4a06597-325c-4278-8ac6-dbcf09c6cb93"
				}
			},
			"request": {
				"method": "PUT",
				"url": "MedicationRequest/ceftriaxone-b4a06597-325c-4278-8ac6-dbcf09c6cb93"
			}
		},
		{
			"fullUrl": "https://fhir.thinkmd.tech/MedicationRequest/dexamethasonemeningitis-b4a06597-325c-4278-8ac6-dbcf09c6cb93",
			"resource": {
				"resourceType": "MedicationRequest",
				"id": "dexamethasonemeningitis-b4a06597-325c-4278-8ac6-dbcf09c6cb93",
				"status": "active",
				"intent": "proposal",
				"medicationCodeableConcept": {
					"coding": [
						{
							"display": "dexamethasone_meningitis"
						}
					]
				},
				"dosageInstruction": [
					{
						"text": "Start   2mg IM  Dexamethasone 4 times a day for 4 days . Give same time as antibiotics"
					}
				],
				"authoredOn": "2020-12-09T18:14:37.463Z",
				"subject": {
					"reference": "Patient/ThinkMD-16c03e36-287e-4846-8c39-17dd5c351ae3"
				},
				"requester": {
					"reference": "Practitioner/123"
				},
				"encounter": {
					"reference": "Encounter/b4a06597-325c-4278-8ac6-dbcf09c6cb93"
				}
			},
			"request": {
				"method": "PUT",
				"url": "MedicationRequest/dexamethasonemeningitis-b4a06597-325c-4278-8ac6-dbcf09c6cb93"
			}
		},
		{
			"fullUrl": "https://fhir.thinkmd.tech/MedicationRequest/cotrimoxazole-b4a06597-325c-4278-8ac6-dbcf09c6cb93",
			"resource": {
				"resourceType": "MedicationRequest",
				"id": "cotrimoxazole-b4a06597-325c-4278-8ac6-dbcf09c6cb93",
				"status": "active",
				"intent": "proposal",
				"medicationCodeableConcept": {
					"coding": [
						{
							"display": "cotrimoxazole"
						}
					]
				},
				"dosageInstruction": [
					{
						"text": "Start Cotrimoxazole. Give  3   tablet(s) (20mg Trimethroprim + 100mg Sulfamethoxazole / 5ml)   or 1 1&#x2F;2  teaspoon syrup (40mg Trimethroprim + 200mg Sulfamethoxazole / 5ml) 2 times a day for 5 days . If Cotrimoxazole not available use treatment for Amoxicillin"
					}
				],
				"authoredOn": "2020-12-09T18:14:37.463Z",
				"subject": {
					"reference": "Patient/ThinkMD-16c03e36-287e-4846-8c39-17dd5c351ae3"
				},
				"requester": {
					"reference": "Practitioner/123"
				},
				"encounter": {
					"reference": "Encounter/b4a06597-325c-4278-8ac6-dbcf09c6cb93"
				}
			},
			"request": {
				"method": "PUT",
				"url": "MedicationRequest/cotrimoxazole-b4a06597-325c-4278-8ac6-dbcf09c6cb93"
			}
		},
		{
			"fullUrl": "https://fhir.thinkmd.tech/MedicationRequest/ferrousfumarate-b4a06597-325c-4278-8ac6-dbcf09c6cb93",
			"resource": {
				"resourceType": "MedicationRequest",
				"id": "ferrousfumarate-b4a06597-325c-4278-8ac6-dbcf09c6cb93",
				"status": "active",
				"intent": "proposal",
				"medicationCodeableConcept": {
					"coding": [
						{
							"display": "ferrous_fumarate"
						}
					]
				},
				"dosageInstruction": [
					{
						"text": "Start  1&#x2F;2  teaspoon syrup Ferrous Fumarate (100mg/5ml)  once per day for 14 days or 1&#x2F;2   tablet(s) Ferrous Sulfate-Folate (250mg / 250ug) 1 times a day for 14 days "
					}
				],
				"authoredOn": "2020-12-09T18:14:37.463Z",
				"subject": {
					"reference": "Patient/ThinkMD-16c03e36-287e-4846-8c39-17dd5c351ae3"
				},
				"requester": {
					"reference": "Practitioner/123"
				},
				"encounter": {
					"reference": "Encounter/b4a06597-325c-4278-8ac6-dbcf09c6cb93"
				}
			},
			"request": {
				"method": "PUT",
				"url": "MedicationRequest/ferrousfumarate-b4a06597-325c-4278-8ac6-dbcf09c6cb93"
			}
		},
		{
			"fullUrl": "https://fhir.thinkmd.tech/MedicationRequest/cefalexinorcloxicillin-b4a06597-325c-4278-8ac6-dbcf09c6cb93",
			"resource": {
				"resourceType": "MedicationRequest",
				"id": "cefalexinorcloxicillin-b4a06597-325c-4278-8ac6-dbcf09c6cb93",
				"status": "active",
				"intent": "proposal",
				"medicationCodeableConcept": {
					"coding": [
						{
							"display": "cefalexin_or_cloxicillin"
						}
					]
				},
				"dosageInstruction": [
					{
						"text": "Consider Starting   150mg   Cefalexin   or  300-600mg  IM Cloxacillin 4 times a day for 5 days "
					}
				],
				"authoredOn": "2020-12-09T18:14:37.463Z",
				"subject": {
					"reference": "Patient/ThinkMD-16c03e36-287e-4846-8c39-17dd5c351ae3"
				},
				"requester": {
					"reference": "Practitioner/123"
				},
				"encounter": {
					"reference": "Encounter/b4a06597-325c-4278-8ac6-dbcf09c6cb93"
				}
			},
			"request": {
				"method": "PUT",
				"url": "MedicationRequest/cefalexinorcloxicillin-b4a06597-325c-4278-8ac6-dbcf09c6cb93"
			}
		},
		{
			"fullUrl": "https://fhir.thinkmd.tech/MedicationRequest/amoxicillin10days-b4a06597-325c-4278-8ac6-dbcf09c6cb93",
			"resource": {
				"resourceType": "MedicationRequest",
				"id": "amoxicillin10days-b4a06597-325c-4278-8ac6-dbcf09c6cb93",
				"status": "active",
				"intent": "proposal",
				"medicationCodeableConcept": {
					"coding": [
						{
							"display": "amoxicillin_10_days"
						}
					]
				},
				"dosageInstruction": [
					{
						"text": "Start  2  dispersible tablet(s) Amoxicillin (250mg)   or 10 ml (250mg / 5ml syrup)    twice per day for 10 days "
					}
				],
				"authoredOn": "2020-12-09T18:14:37.463Z",
				"subject": {
					"reference": "Patient/ThinkMD-16c03e36-287e-4846-8c39-17dd5c351ae3"
				},
				"requester": {
					"reference": "Practitioner/123"
				},
				"encounter": {
					"reference": "Encounter/b4a06597-325c-4278-8ac6-dbcf09c6cb93"
				}
			},
			"request": {
				"method": "PUT",
				"url": "MedicationRequest/amoxicillin10days-b4a06597-325c-4278-8ac6-dbcf09c6cb93"
			}
		},
		{
			"fullUrl": "https://fhir.thinkmd.tech/Location/ce2f34d3-d16d-49bd-b683-861ae200af42",
			"resource": {
				"resourceType": "Location",
				"description": "Device-collected geo: up_to_date",
				"mode": "instance",
				"position": {
					"latitude": 43.174984,
					"longitude": -71.84021
				}
			},
			"request": {
				"method": "PUT",
				"url": "Location/ce2f34d3-d16d-49bd-b683-861ae200af42"
			}
		},
		{
			"fullUrl": "https://fhir.thinkmd.tech/Encounter/b4a06597-325c-4278-8ac6-dbcf09c6cb93",
			"resource": {
				"resourceType": "Encounter",
				"id": "b4a06597-325c-4278-8ac6-dbcf09c6cb93",
				"status": "arrived",
				"text": {
					"div": "<div class='fhirEncounter'><span>Encounter</span></div>",
					"status": "additional"
				},
				"period": {
					"start": "2020-12-09T18:12:43.056Z",
					"end": "2020-12-09T18:14:37.463Z"
				},
				"class": {
					"system": "http://terminology.hl7.org/CodeSystem/v3-ActCode",
					"code": "HH",
					"display": "home health"
				},
				"subject": {
					"reference": "Patient/ThinkMD-16c03e36-287e-4846-8c39-17dd5c351ae3"
				}
			},
			"request": {
				"method": "PUT",
				"url": "Encounter/b4a06597-325c-4278-8ac6-dbcf09c6cb93"
			}
		},
		{
			"fullUrl": "https://fhir.thinkmd.tech/CarePlan/oxygen-b4a06597-325c-4278-8ac6-dbcf09c6cb93",
			"resource": {
				"resourceType": "CarePlan",
				"id": "oxygen-b4a06597-325c-4278-8ac6-dbcf09c6cb93",
				"text": {
					"status": "generated",
					"div": "<div><p><b>Generated Narrative with Details</b></p><p><b>status</b>: active</p><p><b>intent</b>: order</p>  <p><b>medication</b>: . Generated Summary:  <span>(Details : http://hl7.org/fhir/sid/ndc code ', given as '')</span></p><p><b>subject</b>:   <a></a></p><p><b>reasonCode</b>:  <span>(Details : {SNOMED CT code  = })</span></p></div>"
				},
				"status": "active",
				"intent": "order",
				"addresses": [
					{
						"reference": "Condition/respiratorydistress-b4a06597-325c-4278-8ac6-dbcf09c6cb93",
						"display": "Reason to admister this CarePlan"
					}
				],
				"activity": [
					{
						"detail": {
							"kind": "MedicationRequest",
							"code": {
								"coding": [
									{
										"display": "oxygen"
									}
								]
							},
							"status": "in-progress"
						}
					}
				],
				"encounter": {
					"reference": "Encounter/b4a06597-325c-4278-8ac6-dbcf09c6cb93"
				},
				"subject": {
					"reference": "Patient/ThinkMD-16c03e36-287e-4846-8c39-17dd5c351ae3"
				}
			},
			"request": {
				"method": "PUT",
				"url": "CarePlan/oxygen-b4a06597-325c-4278-8ac6-dbcf09c6cb93"
			}
		},
		{
			"fullUrl": "https://fhir.thinkmd.tech/CarePlan/amoxicillin-b4a06597-325c-4278-8ac6-dbcf09c6cb93",
			"resource": {
				"resourceType": "CarePlan",
				"id": "amoxicillin-b4a06597-325c-4278-8ac6-dbcf09c6cb93",
				"text": {
					"status": "generated",
					"div": "<div><p><b>Generated Narrative with Details</b></p><p><b>status</b>: active</p><p><b>intent</b>: order</p>  <p><b>medication</b>: . Generated Summary:  <span>(Details : http://hl7.org/fhir/sid/ndc code ', given as '')</span></p><p><b>subject</b>:   <a></a></p><p><b>reasonCode</b>:  <span>(Details : {SNOMED CT code  = })</span></p></div>"
				},
				"status": "active",
				"intent": "order",
				"addresses": [
					{
						"reference": "Condition/febrileillness-b4a06597-325c-4278-8ac6-dbcf09c6cb93",
						"display": "Reason to admister this CarePlan"
					}
				],
				"activity": [
					{
						"detail": {
							"kind": "MedicationRequest",
							"code": {
								"coding": [
									{
										"display": "amoxicillin"
									}
								]
							},
							"status": "in-progress"
						}
					}
				],
				"encounter": {
					"reference": "Encounter/b4a06597-325c-4278-8ac6-dbcf09c6cb93"
				},
				"subject": {
					"reference": "Patient/ThinkMD-16c03e36-287e-4846-8c39-17dd5c351ae3"
				}
			},
			"request": {
				"method": "PUT",
				"url": "CarePlan/amoxicillin-b4a06597-325c-4278-8ac6-dbcf09c6cb93"
			}
		},
		{
			"fullUrl": "https://fhir.thinkmd.tech/CarePlan/orsbymouth-b4a06597-325c-4278-8ac6-dbcf09c6cb93",
			"resource": {
				"resourceType": "CarePlan",
				"id": "orsbymouth-b4a06597-325c-4278-8ac6-dbcf09c6cb93",
				"text": {
					"status": "generated",
					"div": "<div><p><b>Generated Narrative with Details</b></p><p><b>status</b>: active</p><p><b>intent</b>: order</p>  <p><b>medication</b>: . Generated Summary:  <span>(Details : http://hl7.org/fhir/sid/ndc code ', given as '')</span></p><p><b>subject</b>:   <a></a></p><p><b>reasonCode</b>:  <span>(Details : {SNOMED CT code  = })</span></p></div>"
				},
				"status": "active",
				"intent": "order",
				"addresses": [
					{
						"reference": "Condition/dehydration-b4a06597-325c-4278-8ac6-dbcf09c6cb93",
						"display": "Reason to admister this CarePlan"
					}
				],
				"activity": [
					{
						"detail": {
							"kind": "MedicationRequest",
							"code": {
								"coding": [
									{
										"display": "ors_by_mouth"
									}
								]
							},
							"status": "in-progress"
						}
					}
				],
				"encounter": {
					"reference": "Encounter/b4a06597-325c-4278-8ac6-dbcf09c6cb93"
				},
				"subject": {
					"reference": "Patient/ThinkMD-16c03e36-287e-4846-8c39-17dd5c351ae3"
				}
			},
			"request": {
				"method": "PUT",
				"url": "CarePlan/orsbymouth-b4a06597-325c-4278-8ac6-dbcf09c6cb93"
			}
		},
		{
			"fullUrl": "https://fhir.thinkmd.tech/CarePlan/orsbymouthdiarrhea-b4a06597-325c-4278-8ac6-dbcf09c6cb93",
			"resource": {
				"resourceType": "CarePlan",
				"id": "orsbymouthdiarrhea-b4a06597-325c-4278-8ac6-dbcf09c6cb93",
				"text": {
					"status": "generated",
					"div": "<div><p><b>Generated Narrative with Details</b></p><p><b>status</b>: active</p><p><b>intent</b>: order</p>  <p><b>medication</b>: . Generated Summary:  <span>(Details : http://hl7.org/fhir/sid/ndc code ', given as '')</span></p><p><b>subject</b>:   <a></a></p><p><b>reasonCode</b>:  <span>(Details : {SNOMED CT code  = })</span></p></div>"
				},
				"status": "active",
				"intent": "order",
				"addresses": [
					{
						"reference": "Condition/dysentery-b4a06597-325c-4278-8ac6-dbcf09c6cb93",
						"display": "Reason to admister this CarePlan"
					}
				],
				"activity": [
					{
						"detail": {
							"kind": "MedicationRequest",
							"code": {
								"coding": [
									{
										"display": "ors_by_mouth_diarrhea"
									}
								]
							},
							"status": "in-progress"
						}
					}
				],
				"encounter": {
					"reference": "Encounter/b4a06597-325c-4278-8ac6-dbcf09c6cb93"
				},
				"subject": {
					"reference": "Patient/ThinkMD-16c03e36-287e-4846-8c39-17dd5c351ae3"
				}
			},
			"request": {
				"method": "PUT",
				"url": "CarePlan/orsbymouthdiarrhea-b4a06597-325c-4278-8ac6-dbcf09c6cb93"
			}
		},
		{
			"fullUrl": "https://fhir.thinkmd.tech/CarePlan/zinc-b4a06597-325c-4278-8ac6-dbcf09c6cb93",
			"resource": {
				"resourceType": "CarePlan",
				"id": "zinc-b4a06597-325c-4278-8ac6-dbcf09c6cb93",
				"text": {
					"status": "generated",
					"div": "<div><p><b>Generated Narrative with Details</b></p><p><b>status</b>: active</p><p><b>intent</b>: order</p>  <p><b>medication</b>: . Generated Summary:  <span>(Details : http://hl7.org/fhir/sid/ndc code ', given as '')</span></p><p><b>subject</b>:   <a></a></p><p><b>reasonCode</b>:  <span>(Details : {SNOMED CT code  = })</span></p></div>"
				},
				"status": "active",
				"intent": "order",
				"addresses": [
					{
						"reference": "Condition/dysentery-b4a06597-325c-4278-8ac6-dbcf09c6cb93",
						"display": "Reason to admister this CarePlan"
					}
				],
				"activity": [
					{
						"detail": {
							"kind": "MedicationRequest",
							"code": {
								"coding": [
									{
										"display": "zinc"
									}
								]
							},
							"status": "in-progress"
						}
					}
				],
				"encounter": {
					"reference": "Encounter/b4a06597-325c-4278-8ac6-dbcf09c6cb93"
				},
				"subject": {
					"reference": "Patient/ThinkMD-16c03e36-287e-4846-8c39-17dd5c351ae3"
				}
			},
			"request": {
				"method": "PUT",
				"url": "CarePlan/zinc-b4a06597-325c-4278-8ac6-dbcf09c6cb93"
			}
		},
		{
			"fullUrl": "https://fhir.thinkmd.tech/CarePlan/ifvomiting-b4a06597-325c-4278-8ac6-dbcf09c6cb93",
			"resource": {
				"resourceType": "CarePlan",
				"id": "ifvomiting-b4a06597-325c-4278-8ac6-dbcf09c6cb93",
				"text": {
					"status": "generated",
					"div": "<div><p><b>Generated Narrative with Details</b></p><p><b>status</b>: active</p><p><b>intent</b>: order</p>  <p><b>medication</b>: . Generated Summary:  <span>(Details : http://hl7.org/fhir/sid/ndc code ', given as '')</span></p><p><b>subject</b>:   <a></a></p><p><b>reasonCode</b>:  <span>(Details : {SNOMED CT code  = })</span></p></div>"
				},
				"status": "active",
				"intent": "order",
				"addresses": [
					{
						"reference": "Condition/dehydration-b4a06597-325c-4278-8ac6-dbcf09c6cb93",
						"display": "Reason to admister this CarePlan"
					}
				],
				"activity": [
					{
						"detail": {
							"kind": "Task",
							"code": {
								"coding": [
									{
										"display": "if_vomiting"
									}
								]
							},
							"status": "in-progress"
						}
					}
				],
				"encounter": {
					"reference": "Encounter/b4a06597-325c-4278-8ac6-dbcf09c6cb93"
				},
				"subject": {
					"reference": "Patient/ThinkMD-16c03e36-287e-4846-8c39-17dd5c351ae3"
				}
			},
			"request": {
				"method": "PUT",
				"url": "CarePlan/ifvomiting-b4a06597-325c-4278-8ac6-dbcf09c6cb93"
			}
		},
		{
			"fullUrl": "https://fhir.thinkmd.tech/CarePlan/returnifdrinkingless-b4a06597-325c-4278-8ac6-dbcf09c6cb93",
			"resource": {
				"resourceType": "CarePlan",
				"id": "returnifdrinkingless-b4a06597-325c-4278-8ac6-dbcf09c6cb93",
				"text": {
					"status": "generated",
					"div": "<div><p><b>Generated Narrative with Details</b></p><p><b>status</b>: active</p><p><b>intent</b>: order</p>  <p><b>medication</b>: . Generated Summary:  <span>(Details : http://hl7.org/fhir/sid/ndc code ', given as '')</span></p><p><b>subject</b>:   <a></a></p><p><b>reasonCode</b>:  <span>(Details : {SNOMED CT code  = })</span></p></div>"
				},
				"status": "active",
				"intent": "order",
				"addresses": [
					{
						"reference": "Condition/chickenpox-b4a06597-325c-4278-8ac6-dbcf09c6cb93",
						"display": "Reason to admister this CarePlan"
					}
				],
				"activity": [
					{
						"detail": {
							"kind": "Task",
							"code": {
								"coding": [
									{
										"display": "return_if_drinking_less"
									}
								]
							},
							"status": "in-progress"
						}
					}
				],
				"encounter": {
					"reference": "Encounter/b4a06597-325c-4278-8ac6-dbcf09c6cb93"
				},
				"subject": {
					"reference": "Patient/ThinkMD-16c03e36-287e-4846-8c39-17dd5c351ae3"
				}
			},
			"request": {
				"method": "PUT",
				"url": "CarePlan/returnifdrinkingless-b4a06597-325c-4278-8ac6-dbcf09c6cb93"
			}
		},
		{
			"fullUrl": "https://fhir.thinkmd.tech/CarePlan/returnifurinatingless-b4a06597-325c-4278-8ac6-dbcf09c6cb93",
			"resource": {
				"resourceType": "CarePlan",
				"id": "returnifurinatingless-b4a06597-325c-4278-8ac6-dbcf09c6cb93",
				"text": {
					"status": "generated",
					"div": "<div><p><b>Generated Narrative with Details</b></p><p><b>status</b>: active</p><p><b>intent</b>: order</p>  <p><b>medication</b>: . Generated Summary:  <span>(Details : http://hl7.org/fhir/sid/ndc code ', given as '')</span></p><p><b>subject</b>:   <a></a></p><p><b>reasonCode</b>:  <span>(Details : {SNOMED CT code  = })</span></p></div>"
				},
				"status": "active",
				"intent": "order",
				"addresses": [
					{
						"reference": "Condition/chickenpox-b4a06597-325c-4278-8ac6-dbcf09c6cb93",
						"display": "Reason to admister this CarePlan"
					}
				],
				"activity": [
					{
						"detail": {
							"kind": "Task",
							"code": {
								"coding": [
									{
										"display": "return_if_urinating_less"
									}
								]
							},
							"status": "in-progress"
						}
					}
				],
				"encounter": {
					"reference": "Encounter/b4a06597-325c-4278-8ac6-dbcf09c6cb93"
				},
				"subject": {
					"reference": "Patient/ThinkMD-16c03e36-287e-4846-8c39-17dd5c351ae3"
				}
			},
			"request": {
				"method": "PUT",
				"url": "CarePlan/returnifurinatingless-b4a06597-325c-4278-8ac6-dbcf09c6cb93"
			}
		},
		{
			"fullUrl": "https://fhir.thinkmd.tech/CarePlan/returnifvomitingworsens-b4a06597-325c-4278-8ac6-dbcf09c6cb93",
			"resource": {
				"resourceType": "CarePlan",
				"id": "returnifvomitingworsens-b4a06597-325c-4278-8ac6-dbcf09c6cb93",
				"text": {
					"status": "generated",
					"div": "<div><p><b>Generated Narrative with Details</b></p><p><b>status</b>: active</p><p><b>intent</b>: order</p>  <p><b>medication</b>: . Generated Summary:  <span>(Details : http://hl7.org/fhir/sid/ndc code ', given as '')</span></p><p><b>subject</b>:   <a></a></p><p><b>reasonCode</b>:  <span>(Details : {SNOMED CT code  = })</span></p></div>"
				},
				"status": "active",
				"intent": "order",
				"addresses": [
					{
						"reference": "Condition/earinfection-b4a06597-325c-4278-8ac6-dbcf09c6cb93",
						"display": "Reason to admister this CarePlan"
					}
				],
				"activity": [
					{
						"detail": {
							"kind": "Task",
							"code": {
								"coding": [
									{
										"display": "return_if_vomiting_worsens"
									}
								]
							},
							"status": "in-progress"
						}
					}
				],
				"encounter": {
					"reference": "Encounter/b4a06597-325c-4278-8ac6-dbcf09c6cb93"
				},
				"subject": {
					"reference": "Patient/ThinkMD-16c03e36-287e-4846-8c39-17dd5c351ae3"
				}
			},
			"request": {
				"method": "PUT",
				"url": "CarePlan/returnifvomitingworsens-b4a06597-325c-4278-8ac6-dbcf09c6cb93"
			}
		},
		{
			"fullUrl": "https://fhir.thinkmd.tech/CarePlan/returnifdiarrheaworsens-b4a06597-325c-4278-8ac6-dbcf09c6cb93",
			"resource": {
				"resourceType": "CarePlan",
				"id": "returnifdiarrheaworsens-b4a06597-325c-4278-8ac6-dbcf09c6cb93",
				"text": {
					"status": "generated",
					"div": "<div><p><b>Generated Narrative with Details</b></p><p><b>status</b>: active</p><p><b>intent</b>: order</p>  <p><b>medication</b>: . Generated Summary:  <span>(Details : http://hl7.org/fhir/sid/ndc code ', given as '')</span></p><p><b>subject</b>:   <a></a></p><p><b>reasonCode</b>:  <span>(Details : {SNOMED CT code  = })</span></p></div>"
				},
				"status": "active",
				"intent": "order",
				"addresses": [
					{
						"reference": "Condition/earinfection-b4a06597-325c-4278-8ac6-dbcf09c6cb93",
						"display": "Reason to admister this CarePlan"
					}
				],
				"activity": [
					{
						"detail": {
							"kind": "Task",
							"code": {
								"coding": [
									{
										"display": "return_if_diarrhea_worsens"
									}
								]
							},
							"status": "in-progress"
						}
					}
				],
				"encounter": {
					"reference": "Encounter/b4a06597-325c-4278-8ac6-dbcf09c6cb93"
				},
				"subject": {
					"reference": "Patient/ThinkMD-16c03e36-287e-4846-8c39-17dd5c351ae3"
				}
			},
			"request": {
				"method": "PUT",
				"url": "CarePlan/returnifdiarrheaworsens-b4a06597-325c-4278-8ac6-dbcf09c6cb93"
			}
		},
		{
			"fullUrl": "https://fhir.thinkmd.tech/CarePlan/encoragechildtodrink-b4a06597-325c-4278-8ac6-dbcf09c6cb93",
			"resource": {
				"resourceType": "CarePlan",
				"id": "encoragechildtodrink-b4a06597-325c-4278-8ac6-dbcf09c6cb93",
				"text": {
					"status": "generated",
					"div": "<div><p><b>Generated Narrative with Details</b></p><p><b>status</b>: active</p><p><b>intent</b>: order</p>  <p><b>medication</b>: . Generated Summary:  <span>(Details : http://hl7.org/fhir/sid/ndc code ', given as '')</span></p><p><b>subject</b>:   <a></a></p><p><b>reasonCode</b>:  <span>(Details : {SNOMED CT code  = })</span></p></div>"
				},
				"status": "active",
				"intent": "order",
				"addresses": [
					{
						"reference": "Condition/diarrhea-b4a06597-325c-4278-8ac6-dbcf09c6cb93",
						"display": "Reason to admister this CarePlan"
					}
				],
				"activity": [
					{
						"detail": {
							"kind": "Task",
							"code": {
								"coding": [
									{
										"display": "encorage_child_to_drink"
									}
								]
							},
							"status": "in-progress"
						}
					}
				],
				"encounter": {
					"reference": "Encounter/b4a06597-325c-4278-8ac6-dbcf09c6cb93"
				},
				"subject": {
					"reference": "Patient/ThinkMD-16c03e36-287e-4846-8c39-17dd5c351ae3"
				}
			},
			"request": {
				"method": "PUT",
				"url": "CarePlan/encoragechildtodrink-b4a06597-325c-4278-8ac6-dbcf09c6cb93"
			}
		},
		{
			"fullUrl": "https://fhir.thinkmd.tech/CarePlan/makeors-b4a06597-325c-4278-8ac6-dbcf09c6cb93",
			"resource": {
				"resourceType": "CarePlan",
				"id": "makeors-b4a06597-325c-4278-8ac6-dbcf09c6cb93",
				"text": {
					"status": "generated",
					"div": "<div><p><b>Generated Narrative with Details</b></p><p><b>status</b>: active</p><p><b>intent</b>: order</p>  <p><b>medication</b>: . Generated Summary:  <span>(Details : http://hl7.org/fhir/sid/ndc code ', given as '')</span></p><p><b>subject</b>:   <a></a></p><p><b>reasonCode</b>:  <span>(Details : {SNOMED CT code  = })</span></p></div>"
				},
				"status": "active",
				"intent": "order",
				"addresses": [
					{
						"reference": "Condition/dehydration-b4a06597-325c-4278-8ac6-dbcf09c6cb93",
						"display": "Reason to admister this CarePlan"
					}
				],
				"activity": [
					{
						"detail": {
							"kind": "Task",
							"code": {
								"coding": [
									{
										"display": "make_ors"
									}
								]
							},
							"status": "in-progress"
						}
					}
				],
				"encounter": {
					"reference": "Encounter/b4a06597-325c-4278-8ac6-dbcf09c6cb93"
				},
				"subject": {
					"reference": "Patient/ThinkMD-16c03e36-287e-4846-8c39-17dd5c351ae3"
				}
			},
			"request": {
				"method": "PUT",
				"url": "CarePlan/makeors-b4a06597-325c-4278-8ac6-dbcf09c6cb93"
			}
		},
		{
			"fullUrl": "https://fhir.thinkmd.tech/CarePlan/giveors-b4a06597-325c-4278-8ac6-dbcf09c6cb93",
			"resource": {
				"resourceType": "CarePlan",
				"id": "giveors-b4a06597-325c-4278-8ac6-dbcf09c6cb93",
				"text": {
					"status": "generated",
					"div": "<div><p><b>Generated Narrative with Details</b></p><p><b>status</b>: active</p><p><b>intent</b>: order</p>  <p><b>medication</b>: . Generated Summary:  <span>(Details : http://hl7.org/fhir/sid/ndc code ', given as '')</span></p><p><b>subject</b>:   <a></a></p><p><b>reasonCode</b>:  <span>(Details : {SNOMED CT code  = })</span></p></div>"
				},
				"status": "active",
				"intent": "order",
				"addresses": [
					{
						"reference": "Condition/dehydration-b4a06597-325c-4278-8ac6-dbcf09c6cb93",
						"display": "Reason to admister this CarePlan"
					}
				],
				"activity": [
					{
						"detail": {
							"kind": "Task",
							"code": {
								"coding": [
									{
										"display": "give_ors"
									}
								]
							},
							"status": "in-progress"
						}
					}
				],
				"encounter": {
					"reference": "Encounter/b4a06597-325c-4278-8ac6-dbcf09c6cb93"
				},
				"subject": {
					"reference": "Patient/ThinkMD-16c03e36-287e-4846-8c39-17dd5c351ae3"
				}
			},
			"request": {
				"method": "PUT",
				"url": "CarePlan/giveors-b4a06597-325c-4278-8ac6-dbcf09c6cb93"
			}
		},
		{
			"fullUrl": "https://fhir.thinkmd.tech/CarePlan/encouraeliquidyfoods-b4a06597-325c-4278-8ac6-dbcf09c6cb93",
			"resource": {
				"resourceType": "CarePlan",
				"id": "encouraeliquidyfoods-b4a06597-325c-4278-8ac6-dbcf09c6cb93",
				"text": {
					"status": "generated",
					"div": "<div><p><b>Generated Narrative with Details</b></p><p><b>status</b>: active</p><p><b>intent</b>: order</p>  <p><b>medication</b>: . Generated Summary:  <span>(Details : http://hl7.org/fhir/sid/ndc code ', given as '')</span></p><p><b>subject</b>:   <a></a></p><p><b>reasonCode</b>:  <span>(Details : {SNOMED CT code  = })</span></p></div>"
				},
				"status": "active",
				"intent": "order",
				"addresses": [
					{
						"reference": "Condition/dehydration-b4a06597-325c-4278-8ac6-dbcf09c6cb93",
						"display": "Reason to admister this CarePlan"
					}
				],
				"activity": [
					{
						"detail": {
							"kind": "Task",
							"code": {
								"coding": [
									{
										"display": "encourae_liquidy_foods"
									}
								]
							},
							"status": "in-progress"
						}
					}
				],
				"encounter": {
					"reference": "Encounter/b4a06597-325c-4278-8ac6-dbcf09c6cb93"
				},
				"subject": {
					"reference": "Patient/ThinkMD-16c03e36-287e-4846-8c39-17dd5c351ae3"
				}
			},
			"request": {
				"method": "PUT",
				"url": "CarePlan/encouraeliquidyfoods-b4a06597-325c-4278-8ac6-dbcf09c6cb93"
			}
		},
		{
			"fullUrl": "https://fhir.thinkmd.tech/CarePlan/refernewbornmalnutrition-b4a06597-325c-4278-8ac6-dbcf09c6cb93",
			"resource": {
				"resourceType": "CarePlan",
				"id": "refernewbornmalnutrition-b4a06597-325c-4278-8ac6-dbcf09c6cb93",
				"text": {
					"status": "generated",
					"div": "<div><p><b>Generated Narrative with Details</b></p><p><b>status</b>: active</p><p><b>intent</b>: order</p>  <p><b>medication</b>: . Generated Summary:  <span>(Details : http://hl7.org/fhir/sid/ndc code ', given as '')</span></p><p><b>subject</b>:   <a></a></p><p><b>reasonCode</b>:  <span>(Details : {SNOMED CT code  = })</span></p></div>"
				},
				"status": "active",
				"intent": "order",
				"addresses": [
					{
						"reference": "Condition/malnutrition-b4a06597-325c-4278-8ac6-dbcf09c6cb93",
						"display": "Reason to admister this CarePlan"
					}
				],
				"activity": [
					{
						"detail": {
							"kind": "Task",
							"code": {
								"coding": [
									{
										"display": "refer_newborn_malnutrition"
									}
								]
							},
							"status": "in-progress"
						}
					}
				],
				"encounter": {
					"reference": "Encounter/b4a06597-325c-4278-8ac6-dbcf09c6cb93"
				},
				"subject": {
					"reference": "Patient/ThinkMD-16c03e36-287e-4846-8c39-17dd5c351ae3"
				}
			},
			"request": {
				"method": "PUT",
				"url": "CarePlan/refernewbornmalnutrition-b4a06597-325c-4278-8ac6-dbcf09c6cb93"
			}
		},
		{
			"fullUrl": "https://fhir.thinkmd.tech/CarePlan/performmalariatest-b4a06597-325c-4278-8ac6-dbcf09c6cb93",
			"resource": {
				"resourceType": "CarePlan",
				"id": "performmalariatest-b4a06597-325c-4278-8ac6-dbcf09c6cb93",
				"text": {
					"status": "generated",
					"div": "<div><p><b>Generated Narrative with Details</b></p><p><b>status</b>: active</p><p><b>intent</b>: order</p>  <p><b>medication</b>: . Generated Summary:  <span>(Details : http://hl7.org/fhir/sid/ndc code ', given as '')</span></p><p><b>subject</b>:   <a></a></p><p><b>reasonCode</b>:  <span>(Details : {SNOMED CT code  = })</span></p></div>"
				},
				"status": "active",
				"intent": "order",
				"addresses": [
					{
						"reference": "Condition/malaria-b4a06597-325c-4278-8ac6-dbcf09c6cb93",
						"display": "Reason to admister this CarePlan"
					}
				],
				"activity": [
					{
						"detail": {
							"kind": "Task",
							"code": {
								"coding": [
									{
										"display": "perform_malaria_test"
									}
								]
							},
							"status": "in-progress"
						}
					}
				],
				"encounter": {
					"reference": "Encounter/b4a06597-325c-4278-8ac6-dbcf09c6cb93"
				},
				"subject": {
					"reference": "Patient/ThinkMD-16c03e36-287e-4846-8c39-17dd5c351ae3"
				}
			},
			"request": {
				"method": "PUT",
				"url": "CarePlan/performmalariatest-b4a06597-325c-4278-8ac6-dbcf09c6cb93"
			}
		},
		{
			"fullUrl": "https://fhir.thinkmd.tech/CarePlan/refer-b4a06597-325c-4278-8ac6-dbcf09c6cb93",
			"resource": {
				"resourceType": "CarePlan",
				"id": "refer-b4a06597-325c-4278-8ac6-dbcf09c6cb93",
				"text": {
					"status": "generated",
					"div": "<div><p><b>Generated Narrative with Details</b></p><p><b>status</b>: active</p><p><b>intent</b>: order</p>  <p><b>medication</b>: . Generated Summary:  <span>(Details : http://hl7.org/fhir/sid/ndc code ', given as '')</span></p><p><b>subject</b>:   <a></a></p><p><b>reasonCode</b>:  <span>(Details : {SNOMED CT code  = })</span></p></div>"
				},
				"status": "active",
				"intent": "order",
				"addresses": [
					{
						"reference": "Condition/seizure-b4a06597-325c-4278-8ac6-dbcf09c6cb93",
						"display": "Reason to admister this CarePlan"
					}
				],
				"activity": [
					{
						"detail": {
							"kind": "Task",
							"code": {
								"coding": [
									{
										"display": "refer"
									}
								]
							},
							"status": "in-progress"
						}
					}
				],
				"encounter": {
					"reference": "Encounter/b4a06597-325c-4278-8ac6-dbcf09c6cb93"
				},
				"subject": {
					"reference": "Patient/ThinkMD-16c03e36-287e-4846-8c39-17dd5c351ae3"
				}
			},
			"request": {
				"method": "PUT",
				"url": "CarePlan/refer-b4a06597-325c-4278-8ac6-dbcf09c6cb93"
			}
		},
		{
			"fullUrl": "https://fhir.thinkmd.tech/CarePlan/orssugarwater-b4a06597-325c-4278-8ac6-dbcf09c6cb93",
			"resource": {
				"resourceType": "CarePlan",
				"id": "orssugarwater-b4a06597-325c-4278-8ac6-dbcf09c6cb93",
				"text": {
					"status": "generated",
					"div": "<div><p><b>Generated Narrative with Details</b></p><p><b>status</b>: active</p><p><b>intent</b>: order</p>  <p><b>medication</b>: . Generated Summary:  <span>(Details : http://hl7.org/fhir/sid/ndc code ', given as '')</span></p><p><b>subject</b>:   <a></a></p><p><b>reasonCode</b>:  <span>(Details : {SNOMED CT code  = })</span></p></div>"
				},
				"status": "active",
				"intent": "order",
				"addresses": [
					{
						"reference": "Condition/malaria-b4a06597-325c-4278-8ac6-dbcf09c6cb93",
						"display": "Reason to admister this CarePlan"
					}
				],
				"activity": [
					{
						"detail": {
							"kind": "Task",
							"code": {
								"coding": [
									{
										"display": "ors_sugar_water"
									}
								]
							},
							"status": "in-progress"
						}
					}
				],
				"encounter": {
					"reference": "Encounter/b4a06597-325c-4278-8ac6-dbcf09c6cb93"
				},
				"subject": {
					"reference": "Patient/ThinkMD-16c03e36-287e-4846-8c39-17dd5c351ae3"
				}
			},
			"request": {
				"method": "PUT",
				"url": "CarePlan/orssugarwater-b4a06597-325c-4278-8ac6-dbcf09c6cb93"
			}
		},
		{
			"fullUrl": "https://fhir.thinkmd.tech/CarePlan/ciprofloxicin-b4a06597-325c-4278-8ac6-dbcf09c6cb93",
			"resource": {
				"resourceType": "CarePlan",
				"id": "ciprofloxicin-b4a06597-325c-4278-8ac6-dbcf09c6cb93",
				"text": {
					"status": "generated",
					"div": "<div><p><b>Generated Narrative with Details</b></p><p><b>status</b>: active</p><p><b>intent</b>: order</p>  <p><b>medication</b>: . Generated Summary:  <span>(Details : http://hl7.org/fhir/sid/ndc code ', given as '')</span></p><p><b>subject</b>:   <a></a></p><p><b>reasonCode</b>:  <span>(Details : {SNOMED CT code  = })</span></p></div>"
				},
				"status": "active",
				"intent": "order",
				"addresses": [
					{
						"reference": "Condition/dysentery-b4a06597-325c-4278-8ac6-dbcf09c6cb93",
						"display": "Reason to admister this CarePlan"
					}
				],
				"activity": [
					{
						"detail": {
							"kind": "MedicationRequest",
							"code": {
								"coding": [
									{
										"display": "ciprofloxicin"
									}
								]
							},
							"status": "in-progress"
						}
					}
				],
				"encounter": {
					"reference": "Encounter/b4a06597-325c-4278-8ac6-dbcf09c6cb93"
				},
				"subject": {
					"reference": "Patient/ThinkMD-16c03e36-287e-4846-8c39-17dd5c351ae3"
				}
			},
			"request": {
				"method": "PUT",
				"url": "CarePlan/ciprofloxicin-b4a06597-325c-4278-8ac6-dbcf09c6cb93"
			}
		},
		{
			"fullUrl": "https://fhir.thinkmd.tech/CarePlan/followupin3days-b4a06597-325c-4278-8ac6-dbcf09c6cb93",
			"resource": {
				"resourceType": "CarePlan",
				"id": "followupin3days-b4a06597-325c-4278-8ac6-dbcf09c6cb93",
				"text": {
					"status": "generated",
					"div": "<div><p><b>Generated Narrative with Details</b></p><p><b>status</b>: active</p><p><b>intent</b>: order</p>  <p><b>medication</b>: . Generated Summary:  <span>(Details : http://hl7.org/fhir/sid/ndc code ', given as '')</span></p><p><b>subject</b>:   <a></a></p><p><b>reasonCode</b>:  <span>(Details : {SNOMED CT code  = })</span></p></div>"
				},
				"status": "active",
				"intent": "order",
				"addresses": [
					{
						"reference": "Condition/sinusinfection-b4a06597-325c-4278-8ac6-dbcf09c6cb93",
						"display": "Reason to admister this CarePlan"
					}
				],
				"activity": [
					{
						"detail": {
							"kind": "Task",
							"code": {
								"coding": [
									{
										"display": "followup_in_3_days"
									}
								]
							},
							"status": "in-progress"
						}
					}
				],
				"encounter": {
					"reference": "Encounter/b4a06597-325c-4278-8ac6-dbcf09c6cb93"
				},
				"subject": {
					"reference": "Patient/ThinkMD-16c03e36-287e-4846-8c39-17dd5c351ae3"
				}
			},
			"request": {
				"method": "PUT",
				"url": "CarePlan/followupin3days-b4a06597-325c-4278-8ac6-dbcf09c6cb93"
			}
		},
		{
			"fullUrl": "https://fhir.thinkmd.tech/CarePlan/ceftriaxone-b4a06597-325c-4278-8ac6-dbcf09c6cb93",
			"resource": {
				"resourceType": "CarePlan",
				"id": "ceftriaxone-b4a06597-325c-4278-8ac6-dbcf09c6cb93",
				"text": {
					"status": "generated",
					"div": "<div><p><b>Generated Narrative with Details</b></p><p><b>status</b>: active</p><p><b>intent</b>: order</p>  <p><b>medication</b>: . Generated Summary:  <span>(Details : http://hl7.org/fhir/sid/ndc code ', given as '')</span></p><p><b>subject</b>:   <a></a></p><p><b>reasonCode</b>:  <span>(Details : {SNOMED CT code  = })</span></p></div>"
				},
				"status": "active",
				"intent": "order",
				"addresses": [
					{
						"reference": "Condition/meningitis-b4a06597-325c-4278-8ac6-dbcf09c6cb93",
						"display": "Reason to admister this CarePlan"
					}
				],
				"activity": [
					{
						"detail": {
							"kind": "MedicationRequest",
							"code": {
								"coding": [
									{
										"display": "ceftriaxone"
									}
								]
							},
							"status": "in-progress"
						}
					}
				],
				"encounter": {
					"reference": "Encounter/b4a06597-325c-4278-8ac6-dbcf09c6cb93"
				},
				"subject": {
					"reference": "Patient/ThinkMD-16c03e36-287e-4846-8c39-17dd5c351ae3"
				}
			},
			"request": {
				"method": "PUT",
				"url": "CarePlan/ceftriaxone-b4a06597-325c-4278-8ac6-dbcf09c6cb93"
			}
		},
		{
			"fullUrl": "https://fhir.thinkmd.tech/CarePlan/dexamethasonemeningitis-b4a06597-325c-4278-8ac6-dbcf09c6cb93",
			"resource": {
				"resourceType": "CarePlan",
				"id": "dexamethasonemeningitis-b4a06597-325c-4278-8ac6-dbcf09c6cb93",
				"text": {
					"status": "generated",
					"div": "<div><p><b>Generated Narrative with Details</b></p><p><b>status</b>: active</p><p><b>intent</b>: order</p>  <p><b>medication</b>: . Generated Summary:  <span>(Details : http://hl7.org/fhir/sid/ndc code ', given as '')</span></p><p><b>subject</b>:   <a></a></p><p><b>reasonCode</b>:  <span>(Details : {SNOMED CT code  = })</span></p></div>"
				},
				"status": "active",
				"intent": "order",
				"addresses": [
					{
						"reference": "Condition/meningitis-b4a06597-325c-4278-8ac6-dbcf09c6cb93",
						"display": "Reason to admister this CarePlan"
					}
				],
				"activity": [
					{
						"detail": {
							"kind": "MedicationRequest",
							"code": {
								"coding": [
									{
										"display": "dexamethasone_meningitis"
									}
								]
							},
							"status": "in-progress"
						}
					}
				],
				"encounter": {
					"reference": "Encounter/b4a06597-325c-4278-8ac6-dbcf09c6cb93"
				},
				"subject": {
					"reference": "Patient/ThinkMD-16c03e36-287e-4846-8c39-17dd5c351ae3"
				}
			},
			"request": {
				"method": "PUT",
				"url": "CarePlan/dexamethasonemeningitis-b4a06597-325c-4278-8ac6-dbcf09c6cb93"
			}
		},
		{
			"fullUrl": "https://fhir.thinkmd.tech/CarePlan/cotrimoxazole-b4a06597-325c-4278-8ac6-dbcf09c6cb93",
			"resource": {
				"resourceType": "CarePlan",
				"id": "cotrimoxazole-b4a06597-325c-4278-8ac6-dbcf09c6cb93",
				"text": {
					"status": "generated",
					"div": "<div><p><b>Generated Narrative with Details</b></p><p><b>status</b>: active</p><p><b>intent</b>: order</p>  <p><b>medication</b>: . Generated Summary:  <span>(Details : http://hl7.org/fhir/sid/ndc code ', given as '')</span></p><p><b>subject</b>:   <a></a></p><p><b>reasonCode</b>:  <span>(Details : {SNOMED CT code  = })</span></p></div>"
				},
				"status": "active",
				"intent": "order",
				"addresses": [
					{
						"reference": "Condition/uti-b4a06597-325c-4278-8ac6-dbcf09c6cb93",
						"display": "Reason to admister this CarePlan"
					}
				],
				"activity": [
					{
						"detail": {
							"kind": "MedicationRequest",
							"code": {
								"coding": [
									{
										"display": "cotrimoxazole"
									}
								]
							},
							"status": "in-progress"
						}
					}
				],
				"encounter": {
					"reference": "Encounter/b4a06597-325c-4278-8ac6-dbcf09c6cb93"
				},
				"subject": {
					"reference": "Patient/ThinkMD-16c03e36-287e-4846-8c39-17dd5c351ae3"
				}
			},
			"request": {
				"method": "PUT",
				"url": "CarePlan/cotrimoxazole-b4a06597-325c-4278-8ac6-dbcf09c6cb93"
			}
		},
		{
			"fullUrl": "https://fhir.thinkmd.tech/CarePlan/returnurinepainpersists-b4a06597-325c-4278-8ac6-dbcf09c6cb93",
			"resource": {
				"resourceType": "CarePlan",
				"id": "returnurinepainpersists-b4a06597-325c-4278-8ac6-dbcf09c6cb93",
				"text": {
					"status": "generated",
					"div": "<div><p><b>Generated Narrative with Details</b></p><p><b>status</b>: active</p><p><b>intent</b>: order</p>  <p><b>medication</b>: . Generated Summary:  <span>(Details : http://hl7.org/fhir/sid/ndc code ', given as '')</span></p><p><b>subject</b>:   <a></a></p><p><b>reasonCode</b>:  <span>(Details : {SNOMED CT code  = })</span></p></div>"
				},
				"status": "active",
				"intent": "order",
				"addresses": [
					{
						"reference": "Condition/uti-b4a06597-325c-4278-8ac6-dbcf09c6cb93",
						"display": "Reason to admister this CarePlan"
					}
				],
				"activity": [
					{
						"detail": {
							"kind": "Task",
							"code": {
								"coding": [
									{
										"display": "return_urine_pain_persists"
									}
								]
							},
							"status": "in-progress"
						}
					}
				],
				"encounter": {
					"reference": "Encounter/b4a06597-325c-4278-8ac6-dbcf09c6cb93"
				},
				"subject": {
					"reference": "Patient/ThinkMD-16c03e36-287e-4846-8c39-17dd5c351ae3"
				}
			},
			"request": {
				"method": "PUT",
				"url": "CarePlan/returnurinepainpersists-b4a06597-325c-4278-8ac6-dbcf09c6cb93"
			}
		},
		{
			"fullUrl": "https://fhir.thinkmd.tech/CarePlan/returnifearpainpersists-b4a06597-325c-4278-8ac6-dbcf09c6cb93",
			"resource": {
				"resourceType": "CarePlan",
				"id": "returnifearpainpersists-b4a06597-325c-4278-8ac6-dbcf09c6cb93",
				"text": {
					"status": "generated",
					"div": "<div><p><b>Generated Narrative with Details</b></p><p><b>status</b>: active</p><p><b>intent</b>: order</p>  <p><b>medication</b>: . Generated Summary:  <span>(Details : http://hl7.org/fhir/sid/ndc code ', given as '')</span></p><p><b>subject</b>:   <a></a></p><p><b>reasonCode</b>:  <span>(Details : {SNOMED CT code  = })</span></p></div>"
				},
				"status": "active",
				"intent": "order",
				"addresses": [
					{
						"reference": "Condition/earinfection-b4a06597-325c-4278-8ac6-dbcf09c6cb93",
						"display": "Reason to admister this CarePlan"
					}
				],
				"activity": [
					{
						"detail": {
							"kind": "Task",
							"code": {
								"coding": [
									{
										"display": "return_if_ear_pain_persists"
									}
								]
							},
							"status": "in-progress"
						}
					}
				],
				"encounter": {
					"reference": "Encounter/b4a06597-325c-4278-8ac6-dbcf09c6cb93"
				},
				"subject": {
					"reference": "Patient/ThinkMD-16c03e36-287e-4846-8c39-17dd5c351ae3"
				}
			},
			"request": {
				"method": "PUT",
				"url": "CarePlan/returnifearpainpersists-b4a06597-325c-4278-8ac6-dbcf09c6cb93"
			}
		},
		{
			"fullUrl": "https://fhir.thinkmd.tech/CarePlan/ferrousfumarate-b4a06597-325c-4278-8ac6-dbcf09c6cb93",
			"resource": {
				"resourceType": "CarePlan",
				"id": "ferrousfumarate-b4a06597-325c-4278-8ac6-dbcf09c6cb93",
				"text": {
					"status": "generated",
					"div": "<div><p><b>Generated Narrative with Details</b></p><p><b>status</b>: active</p><p><b>intent</b>: order</p>  <p><b>medication</b>: . Generated Summary:  <span>(Details : http://hl7.org/fhir/sid/ndc code ', given as '')</span></p><p><b>subject</b>:   <a></a></p><p><b>reasonCode</b>:  <span>(Details : {SNOMED CT code  = })</span></p></div>"
				},
				"status": "active",
				"intent": "order",
				"addresses": [
					{
						"reference": "Condition/anemia-b4a06597-325c-4278-8ac6-dbcf09c6cb93",
						"display": "Reason to admister this CarePlan"
					}
				],
				"activity": [
					{
						"detail": {
							"kind": "MedicationRequest",
							"code": {
								"coding": [
									{
										"display": "ferrous_fumarate"
									}
								]
							},
							"status": "in-progress"
						}
					}
				],
				"encounter": {
					"reference": "Encounter/b4a06597-325c-4278-8ac6-dbcf09c6cb93"
				},
				"subject": {
					"reference": "Patient/ThinkMD-16c03e36-287e-4846-8c39-17dd5c351ae3"
				}
			},
			"request": {
				"method": "PUT",
				"url": "CarePlan/ferrousfumarate-b4a06597-325c-4278-8ac6-dbcf09c6cb93"
			}
		},
		{
			"fullUrl": "https://fhir.thinkmd.tech/CarePlan/followupin14daysanemia-b4a06597-325c-4278-8ac6-dbcf09c6cb93",
			"resource": {
				"resourceType": "CarePlan",
				"id": "followupin14daysanemia-b4a06597-325c-4278-8ac6-dbcf09c6cb93",
				"text": {
					"status": "generated",
					"div": "<div><p><b>Generated Narrative with Details</b></p><p><b>status</b>: active</p><p><b>intent</b>: order</p>  <p><b>medication</b>: . Generated Summary:  <span>(Details : http://hl7.org/fhir/sid/ndc code ', given as '')</span></p><p><b>subject</b>:   <a></a></p><p><b>reasonCode</b>:  <span>(Details : {SNOMED CT code  = })</span></p></div>"
				},
				"status": "active",
				"intent": "order",
				"addresses": [
					{
						"reference": "Condition/anemia-b4a06597-325c-4278-8ac6-dbcf09c6cb93",
						"display": "Reason to admister this CarePlan"
					}
				],
				"activity": [
					{
						"detail": {
							"kind": "Task",
							"code": {
								"coding": [
									{
										"display": "followup_in_14_days_anemia"
									}
								]
							},
							"status": "in-progress"
						}
					}
				],
				"encounter": {
					"reference": "Encounter/b4a06597-325c-4278-8ac6-dbcf09c6cb93"
				},
				"subject": {
					"reference": "Patient/ThinkMD-16c03e36-287e-4846-8c39-17dd5c351ae3"
				}
			},
			"request": {
				"method": "PUT",
				"url": "CarePlan/followupin14daysanemia-b4a06597-325c-4278-8ac6-dbcf09c6cb93"
			}
		},
		{
			"fullUrl": "https://fhir.thinkmd.tech/CarePlan/cefalexinorcloxicillin-b4a06597-325c-4278-8ac6-dbcf09c6cb93",
			"resource": {
				"resourceType": "CarePlan",
				"id": "cefalexinorcloxicillin-b4a06597-325c-4278-8ac6-dbcf09c6cb93",
				"text": {
					"status": "generated",
					"div": "<div><p><b>Generated Narrative with Details</b></p><p><b>status</b>: active</p><p><b>intent</b>: order</p>  <p><b>medication</b>: . Generated Summary:  <span>(Details : http://hl7.org/fhir/sid/ndc code ', given as '')</span></p><p><b>subject</b>:   <a></a></p><p><b>reasonCode</b>:  <span>(Details : {SNOMED CT code  = })</span></p></div>"
				},
				"status": "active",
				"intent": "order",
				"addresses": [
					{
						"reference": "Condition/impetigo-b4a06597-325c-4278-8ac6-dbcf09c6cb93",
						"display": "Reason to admister this CarePlan"
					}
				],
				"activity": [
					{
						"detail": {
							"kind": "MedicationRequest",
							"code": {
								"coding": [
									{
										"display": "cefalexin_or_cloxicillin"
									}
								]
							},
							"status": "in-progress"
						}
					}
				],
				"encounter": {
					"reference": "Encounter/b4a06597-325c-4278-8ac6-dbcf09c6cb93"
				},
				"subject": {
					"reference": "Patient/ThinkMD-16c03e36-287e-4846-8c39-17dd5c351ae3"
				}
			},
			"request": {
				"method": "PUT",
				"url": "CarePlan/cefalexinorcloxicillin-b4a06597-325c-4278-8ac6-dbcf09c6cb93"
			}
		},
		{
			"fullUrl": "https://fhir.thinkmd.tech/CarePlan/clean-b4a06597-325c-4278-8ac6-dbcf09c6cb93",
			"resource": {
				"resourceType": "CarePlan",
				"id": "clean-b4a06597-325c-4278-8ac6-dbcf09c6cb93",
				"text": {
					"status": "generated",
					"div": "<div><p><b>Generated Narrative with Details</b></p><p><b>status</b>: active</p><p><b>intent</b>: order</p>  <p><b>medication</b>: . Generated Summary:  <span>(Details : http://hl7.org/fhir/sid/ndc code ', given as '')</span></p><p><b>subject</b>:   <a></a></p><p><b>reasonCode</b>:  <span>(Details : {SNOMED CT code  = })</span></p></div>"
				},
				"status": "active",
				"intent": "order",
				"addresses": [
					{
						"reference": "Condition/impetigo-b4a06597-325c-4278-8ac6-dbcf09c6cb93",
						"display": "Reason to admister this CarePlan"
					}
				],
				"activity": [
					{
						"detail": {
							"kind": "Task",
							"code": {
								"coding": [
									{
										"display": "clean"
									}
								]
							},
							"status": "in-progress"
						}
					}
				],
				"encounter": {
					"reference": "Encounter/b4a06597-325c-4278-8ac6-dbcf09c6cb93"
				},
				"subject": {
					"reference": "Patient/ThinkMD-16c03e36-287e-4846-8c39-17dd5c351ae3"
				}
			},
			"request": {
				"method": "PUT",
				"url": "CarePlan/clean-b4a06597-325c-4278-8ac6-dbcf09c6cb93"
			}
		},
		{
			"fullUrl": "https://fhir.thinkmd.tech/CarePlan/followupin5daysskininfection-b4a06597-325c-4278-8ac6-dbcf09c6cb9",
			"resource": {
				"resourceType": "CarePlan",
				"id": "followupin5daysskininfection-b4a06597-325c-4278-8ac6-dbcf09c6cb9",
				"text": {
					"status": "generated",
					"div": "<div><p><b>Generated Narrative with Details</b></p><p><b>status</b>: active</p><p><b>intent</b>: order</p>  <p><b>medication</b>: . Generated Summary:  <span>(Details : http://hl7.org/fhir/sid/ndc code ', given as '')</span></p><p><b>subject</b>:   <a></a></p><p><b>reasonCode</b>:  <span>(Details : {SNOMED CT code  = })</span></p></div>"
				},
				"status": "active",
				"intent": "order",
				"addresses": [
					{
						"reference": "Condition/ringworm-b4a06597-325c-4278-8ac6-dbcf09c6cb93",
						"display": "Reason to admister this CarePlan"
					}
				],
				"activity": [
					{
						"detail": {
							"kind": "Task",
							"code": {
								"coding": [
									{
										"display": "followup_in_5_days_skin_infection"
									}
								]
							},
							"status": "in-progress"
						}
					}
				],
				"encounter": {
					"reference": "Encounter/b4a06597-325c-4278-8ac6-dbcf09c6cb93"
				},
				"subject": {
					"reference": "Patient/ThinkMD-16c03e36-287e-4846-8c39-17dd5c351ae3"
				}
			},
			"request": {
				"method": "PUT",
				"url": "CarePlan/followupin5daysskininfection-b4a06597-325c-4278-8ac6-dbcf09c6cb9"
			}
		},
		{
			"fullUrl": "https://fhir.thinkmd.tech/CarePlan/amoxicillin10days-b4a06597-325c-4278-8ac6-dbcf09c6cb93",
			"resource": {
				"resourceType": "CarePlan",
				"id": "amoxicillin10days-b4a06597-325c-4278-8ac6-dbcf09c6cb93",
				"text": {
					"status": "generated",
					"div": "<div><p><b>Generated Narrative with Details</b></p><p><b>status</b>: active</p><p><b>intent</b>: order</p>  <p><b>medication</b>: . Generated Summary:  <span>(Details : http://hl7.org/fhir/sid/ndc code ', given as '')</span></p><p><b>subject</b>:   <a></a></p><p><b>reasonCode</b>:  <span>(Details : {SNOMED CT code  = })</span></p></div>"
				},
				"status": "active",
				"intent": "order",
				"addresses": [
					{
						"reference": "Condition/sinusinfection-b4a06597-325c-4278-8ac6-dbcf09c6cb93",
						"display": "Reason to admister this CarePlan"
					}
				],
				"activity": [
					{
						"detail": {
							"kind": "MedicationRequest",
							"code": {
								"coding": [
									{
										"display": "amoxicillin_10_days"
									}
								]
							},
							"status": "in-progress"
						}
					}
				],
				"encounter": {
					"reference": "Encounter/b4a06597-325c-4278-8ac6-dbcf09c6cb93"
				},
				"subject": {
					"reference": "Patient/ThinkMD-16c03e36-287e-4846-8c39-17dd5c351ae3"
				}
			},
			"request": {
				"method": "PUT",
				"url": "CarePlan/amoxicillin10days-b4a06597-325c-4278-8ac6-dbcf09c6cb93"
			}
		}
	]
}