{
	"resourceType": "Bundle",
	"type": "transaction",
	"entry": [
		{
			"fullUrl": "urn:uuid:d6855f93-b7f1-4d1b-9fa6-d017bdea0cb1",
			"resource": {
				"resourceType": "MessageHeader",
				"id": "d6855f93-b7f1-4d1b-9fa6-d017bdea0cb1",
				"text": {
					"status": "generated",
					"div": "<div xmlns='http://www.w3.org/1999/xhtml'>Message Header</div>"
				},
				"destination": [
					{
						"name": "Ona",
						"endpoint": "https://tbd.ona.opensrp"
					}
				],
				"source": {
					"name": "ThinkMD",
					"software": "ThinkMD",
					"version": "V4.01",
					"endpoint": "https://fhir.thinkmd.tech"
				},
				"eventCoding": {
					"system": "http://hl7.org/fhir/restful-interaction",
					"code": "batch"
				}
			},
			"request": {
				"method": "PUT",
				"url": "MessageHeader/d6855f93-b7f1-4d1b-9fa6-d017bdea0cb1"
			}
		},
		{
			"fullUrl": "https://fhir.thinkmd.tech/Condition/malaria-7f7e5c6d-83bf-4154-8213-5f45c9d88686",
			"resource": {
				"resourceType": "Condition",
				"id": "malaria-7f7e5c6d-83bf-4154-8213-5f45c9d88686",
				"text": {
					"status": "generated",
					"div": "<div class='fhirCondition'><span>Condition</span> - <span>malaria</span> : <span>severe</span></div>"
				},
				"severity": {
					"coding": [
						{
							"system": "http://snomed.info/sct",
							"code": "24484000",
							"display": "severe"
						}
					]
				},
				"clinicalStatus": {
					"coding": [
						{
							"system": "http://terminology.hl7.org/CodeSystem/condition-clinical",
							"code": "active"
						}
					]
				},
				"verificationStatus": {
					"coding": [
						{
							"system": "http://terminology.hl7.org/CodeSystem/condition-ver-status",
							"code": "unconfirmed"
						}
					]
				},
				"code": {
					"coding": [
						{
							"system": "http://snomed.info/sct",
							"code": "61462000",
							"display": "malaria"
						}
					]
				},
				"onsetDateTime": "2020-09-29T21:34:16.782Z",
				"recordedDate": "2020-09-29T21:34:16.782Z",
				"encounter": {
					"reference": "Encounter/7f7e5c6d-83bf-4154-8213-5f45c9d88686"
				},
				"subject": {
					"reference": "Patient/ThinkMD-bee2fb14-194c-4217-ae2d-a7486ce36430"
				}
			},
			"request": {
				"method": "PUT",
				"url": "Condition/malaria-7f7e5c6d-83bf-4154-8213-5f45c9d88686"
			}
		},
		{
			"fullUrl": "https://fhir.thinkmd.tech/Observation/gender-7f7e5c6d-83bf-4154-8213-5f45c9d88686",
			"resource": {
				"resourceType": "Observation",
				"id": "gender-7f7e5c6d-83bf-4154-8213-5f45c9d88686",
				"text": {
					"div": "<div class='fhirObservation'><span>Observation</span> - <span>gender-7f7e5c6d-83bf-4154-8213-5f45c9d88686gender</span> : <span>female</span></div>",
					"status": "additional"
				},
				"effectiveDateTime": "2020-09-29T21:35:04.903Z",
				"code": {
					"coding": [
						{
							"system": "http://snomed.info/sct",
							"code": "429019009",
							"display": "Sex"
						}
					]
				},
				"status": "preliminary",
				"valueCodeableConcept": {
					"coding": [
						{
							"system": "http://snomed.info/sct",
							"code": "248152002",
							"display": "female"
						}
					]
				},
				"subject": {
					"reference": "Patient/ThinkMD-bee2fb14-194c-4217-ae2d-a7486ce36430"
				},
				"performer": [
					{
						"reference": "Practitioner/8907890"
					}
				],
				"encounter": {
					"reference": "Encounter/7f7e5c6d-83bf-4154-8213-5f45c9d88686"
				}
			},
			"request": {
				"method": "PUT",
				"url": "Observation/gender-7f7e5c6d-83bf-4154-8213-5f45c9d88686"
			}
		},
		{
			"fullUrl": "https://fhir.thinkmd.tech/Observation/age-7f7e5c6d-83bf-4154-8213-5f45c9d88686",
			"resource": {
				"resourceType": "Observation",
				"id": "age-7f7e5c6d-83bf-4154-8213-5f45c9d88686",
				"text": {
					"div": "<div class='fhirObservation'><span>Observation</span> - <span>age-7f7e5c6d-83bf-4154-8213-5f45c9d88686age</span> : <span>395 d</span></div>",
					"status": "additional"
				},
				"effectiveDateTime": "2020-09-29T21:35:04.903Z",
				"code": {
					"coding": [
						{
							"system": "http://snomed.info/sct",
							"code": "424144002",
							"display": "Age"
						}
					]
				},
				"status": "preliminary",
				"valueQuantity": {
					"system": "http://hl7.org/fhir/ValueSet/age-units",
					"unit": "",
					"code": "d",
					"value": 395
				},
				"subject": {
					"reference": "Patient/ThinkMD-bee2fb14-194c-4217-ae2d-a7486ce36430"
				},
				"performer": [
					{
						"reference": "Practitioner/8907890"
					}
				],
				"encounter": {
					"reference": "Encounter/7f7e5c6d-83bf-4154-8213-5f45c9d88686"
				}
			},
			"request": {
				"method": "PUT",
				"url": "Observation/age-7f7e5c6d-83bf-4154-8213-5f45c9d88686"
			}
		},
		{
			"fullUrl": "https://fhir.thinkmd.tech/Observation/weight-7f7e5c6d-83bf-4154-8213-5f45c9d88686",
			"resource": {
				"resourceType": "Observation",
				"id": "weight-7f7e5c6d-83bf-4154-8213-5f45c9d88686",
				"text": {
					"div": "<div class='fhirObservation'><span>Observation</span> - <span>weight-7f7e5c6d-83bf-4154-8213-5f45c9d88686weight</span> : <span>12.4 kg</span></div>",
					"status": "additional"
				},
				"effectiveDateTime": "2020-09-29T21:35:04.903Z",
				"code": {
					"coding": [
						{
							"system": "http://snomed.info/sct",
							"code": "27113001",
							"display": "Body weight"
						}
					]
				},
				"status": "preliminary",
				"valueQuantity": {
					"system": "http://unitsofmeasure.org",
					"unit": "kg",
					"code": "kg",
					"value": 12.4
				},
				"subject": {
					"reference": "Patient/ThinkMD-bee2fb14-194c-4217-ae2d-a7486ce36430"
				},
				"performer": [
					{
						"reference": "Practitioner/8907890"
					}
				],
				"encounter": {
					"reference": "Encounter/7f7e5c6d-83bf-4154-8213-5f45c9d88686"
				}
			},
			"request": {
				"method": "PUT",
				"url": "Observation/weight-7f7e5c6d-83bf-4154-8213-5f45c9d88686"
			}
		},
		{
			"fullUrl": "https://fhir.thinkmd.tech/Observation/temperature-7f7e5c6d-83bf-4154-8213-5f45c9d88686",
			"resource": {
				"resourceType": "Observation",
				"id": "temperature-7f7e5c6d-83bf-4154-8213-5f45c9d88686",
				"text": {
					"div": "<div class='fhirObservation'><span>Observation</span> - <span>temperature-7f7e5c6d-83bf-4154-8213-5f45c9d88686temperature</span> : <span>36.5 Cel</span></div>",
					"status": "additional"
				},
				"effectiveDateTime": "2020-09-29T21:35:04.903Z",
				"code": {
					"coding": [
						{
							"system": "http://snomed.info/sct",
							"code": "386725007",
							"display": "Body temperature"
						}
					]
				},
				"status": "preliminary",
				"valueQuantity": {
					"system": "http://unitsofmeasure.org",
					"unit": "degrees C",
					"code": "Cel",
					"value": 36.5
				},
				"subject": {
					"reference": "Patient/ThinkMD-bee2fb14-194c-4217-ae2d-a7486ce36430"
				},
				"performer": [
					{
						"reference": "Practitioner/8907890"
					}
				],
				"encounter": {
					"reference": "Encounter/7f7e5c6d-83bf-4154-8213-5f45c9d88686"
				}
			},
			"request": {
				"method": "PUT",
				"url": "Observation/temperature-7f7e5c6d-83bf-4154-8213-5f45c9d88686"
			}
		},
		{
			"fullUrl": "https://fhir.thinkmd.tech/Observation/painwhenurinating-7f7e5c6d-83bf-4154-8213-5f45c9d88686",
			"resource": {
				"resourceType": "Observation",
				"id": "painwhenurinating-7f7e5c6d-83bf-4154-8213-5f45c9d88686",
				"text": {
					"div": "<div class='fhirObservation'><span>Observation</span> - <span>painwhenurinating-7f7e5c6d-83bf-4154-8213-5f45c9d88686pain_when_urinating</span> : <span>no</span></div>",
					"status": "additional"
				},
				"effectiveDateTime": "2020-09-29T21:35:04.903Z",
				"code": {
					"coding": [
						{
							"system": "http://snomed.info/sct",
							"code": "49650001",
							"display": "Dysuria"
						}
					]
				},
				"status": "preliminary",
				"valueCodeableConcept": {
					"coding": [
						{
							"system": "https://fhir.loinc.org/ValueSet/LL3044-6",
							"code": "N",
							"display": "no"
						}
					]
				},
				"subject": {
					"reference": "Patient/ThinkMD-bee2fb14-194c-4217-ae2d-a7486ce36430"
				},
				"performer": [
					{
						"reference": "Practitioner/8907890"
					}
				],
				"encounter": {
					"reference": "Encounter/7f7e5c6d-83bf-4154-8213-5f45c9d88686"
				}
			},
			"request": {
				"method": "PUT",
				"url": "Observation/painwhenurinating-7f7e5c6d-83bf-4154-8213-5f45c9d88686"
			}
		},
		{
			"fullUrl": "https://fhir.thinkmd.tech/Observation/sick-7f7e5c6d-83bf-4154-8213-5f45c9d88686",
			"resource": {
				"resourceType": "Observation",
				"id": "sick-7f7e5c6d-83bf-4154-8213-5f45c9d88686",
				"text": {
					"div": "<div class='fhirObservation'><span>Observation</span> - <span>sick-7f7e5c6d-83bf-4154-8213-5f45c9d88686sick</span> : <span>no</span></div>",
					"status": "additional"
				},
				"effectiveDateTime": "2020-09-29T21:35:04.903Z",
				"code": {
					"coding": [
						{
							"system": "http://snomed.info/sct",
							"code": "275142008",
							"display": "Sick child"
						}
					]
				},
				"status": "preliminary",
				"valueCodeableConcept": {
					"coding": [
						{
							"system": "https://fhir.loinc.org/ValueSet/LL3044-6",
							"code": "N",
							"display": "no"
						}
					]
				},
				"subject": {
					"reference": "Patient/ThinkMD-bee2fb14-194c-4217-ae2d-a7486ce36430"
				},
				"performer": [
					{
						"reference": "Practitioner/8907890"
					}
				],
				"encounter": {
					"reference": "Encounter/7f7e5c6d-83bf-4154-8213-5f45c9d88686"
				}
			},
			"request": {
				"method": "PUT",
				"url": "Observation/sick-7f7e5c6d-83bf-4154-8213-5f45c9d88686"
			}
		},
		{
			"fullUrl": "https://fhir.thinkmd.tech/Observation/seizure-7f7e5c6d-83bf-4154-8213-5f45c9d88686",
			"resource": {
				"resourceType": "Observation",
				"id": "seizure-7f7e5c6d-83bf-4154-8213-5f45c9d88686",
				"text": {
					"div": "<div class='fhirObservation'><span>Observation</span> - <span>seizure-7f7e5c6d-83bf-4154-8213-5f45c9d88686seizure</span> : <span>no</span></div>",
					"status": "additional"
				},
				"effectiveDateTime": "2020-09-29T21:35:04.903Z",
				"code": {
					"coding": [
						{
							"system": "http://snomed.info/sct",
							"code": "91175000",
							"display": "Seizure"
						}
					]
				},
				"status": "preliminary",
				"valueCodeableConcept": {
					"coding": [
						{
							"system": "https://fhir.loinc.org/ValueSet/LL3044-6",
							"code": "N",
							"display": "no"
						}
					]
				},
				"subject": {
					"reference": "Patient/ThinkMD-bee2fb14-194c-4217-ae2d-a7486ce36430"
				},
				"performer": [
					{
						"reference": "Practitioner/8907890"
					}
				],
				"encounter": {
					"reference": "Encounter/7f7e5c6d-83bf-4154-8213-5f45c9d88686"
				}
			},
			"request": {
				"method": "PUT",
				"url": "Observation/seizure-7f7e5c6d-83bf-4154-8213-5f45c9d88686"
			}
		},
		{
			"fullUrl": "https://fhir.thinkmd.tech/Observation/bloodystools-7f7e5c6d-83bf-4154-8213-5f45c9d88686",
			"resource": {
				"resourceType": "Observation",
				"id": "bloodystools-7f7e5c6d-83bf-4154-8213-5f45c9d88686",
				"text": {
					"div": "<div class='fhirObservation'><span>Observation</span> - <span>bloodystools-7f7e5c6d-83bf-4154-8213-5f45c9d88686bloody_stools</span> : <span>no</span></div>",
					"status": "additional"
				},
				"effectiveDateTime": "2020-09-29T21:35:04.903Z",
				"code": {
					"coding": [
						{
							"system": "http://snomed.info/sct",
							"code": "300392005",
							"display": "Stool flecked with blood"
						}
					]
				},
				"status": "preliminary",
				"valueCodeableConcept": {
					"coding": [
						{
							"system": "https://fhir.loinc.org/ValueSet/LL3044-6",
							"code": "N",
							"display": "no"
						}
					]
				},
				"subject": {
					"reference": "Patient/ThinkMD-bee2fb14-194c-4217-ae2d-a7486ce36430"
				},
				"performer": [
					{
						"reference": "Practitioner/8907890"
					}
				],
				"encounter": {
					"reference": "Encounter/7f7e5c6d-83bf-4154-8213-5f45c9d88686"
				}
			},
			"request": {
				"method": "PUT",
				"url": "Observation/bloodystools-7f7e5c6d-83bf-4154-8213-5f45c9d88686"
			}
		},
		{
			"fullUrl": "https://fhir.thinkmd.tech/Observation/earpain-7f7e5c6d-83bf-4154-8213-5f45c9d88686",
			"resource": {
				"resourceType": "Observation",
				"id": "earpain-7f7e5c6d-83bf-4154-8213-5f45c9d88686",
				"text": {
					"div": "<div class='fhirObservation'><span>Observation</span> - <span>earpain-7f7e5c6d-83bf-4154-8213-5f45c9d88686ear_pain</span> : <span>no</span></div>",
					"status": "additional"
				},
				"effectiveDateTime": "2020-09-29T21:35:04.903Z",
				"code": {
					"coding": [
						{
							"system": "http://snomed.info/sct",
							"code": "301354004",
							"display": "Pain of ear structure"
						}
					]
				},
				"status": "preliminary",
				"valueCodeableConcept": {
					"coding": [
						{
							"system": "https://fhir.loinc.org/ValueSet/LL3044-6",
							"code": "N",
							"display": "no"
						}
					]
				},
				"subject": {
					"reference": "Patient/ThinkMD-bee2fb14-194c-4217-ae2d-a7486ce36430"
				},
				"performer": [
					{
						"reference": "Practitioner/8907890"
					}
				],
				"encounter": {
					"reference": "Encounter/7f7e5c6d-83bf-4154-8213-5f45c9d88686"
				}
			},
			"request": {
				"method": "PUT",
				"url": "Observation/earpain-7f7e5c6d-83bf-4154-8213-5f45c9d88686"
			}
		},
		{
			"fullUrl": "https://fhir.thinkmd.tech/Observation/coldchills-7f7e5c6d-83bf-4154-8213-5f45c9d88686",
			"resource": {
				"resourceType": "Observation",
				"id": "coldchills-7f7e5c6d-83bf-4154-8213-5f45c9d88686",
				"text": {
					"div": "<div class='fhirObservation'><span>Observation</span> - <span>coldchills-7f7e5c6d-83bf-4154-8213-5f45c9d88686cold_chills</span> : <span>no</span></div>",
					"status": "additional"
				},
				"effectiveDateTime": "2020-09-29T21:35:04.903Z",
				"code": {
					"coding": [
						{
							"system": "http://snomed.info/sct",
							"code": "43724002",
							"display": "Chill"
						}
					]
				},
				"status": "preliminary",
				"valueCodeableConcept": {
					"coding": [
						{
							"system": "https://fhir.loinc.org/ValueSet/LL3044-6",
							"code": "N",
							"display": "no"
						}
					]
				},
				"subject": {
					"reference": "Patient/ThinkMD-bee2fb14-194c-4217-ae2d-a7486ce36430"
				},
				"performer": [
					{
						"reference": "Practitioner/8907890"
					}
				],
				"encounter": {
					"reference": "Encounter/7f7e5c6d-83bf-4154-8213-5f45c9d88686"
				}
			},
			"request": {
				"method": "PUT",
				"url": "Observation/coldchills-7f7e5c6d-83bf-4154-8213-5f45c9d88686"
			}
		},
		{
			"fullUrl": "https://fhir.thinkmd.tech/Observation/fever-7f7e5c6d-83bf-4154-8213-5f45c9d88686",
			"resource": {
				"resourceType": "Observation",
				"id": "fever-7f7e5c6d-83bf-4154-8213-5f45c9d88686",
				"text": {
					"div": "<div class='fhirObservation'><span>Observation</span> - <span>fever-7f7e5c6d-83bf-4154-8213-5f45c9d88686fever</span> : <span>yes</span></div>",
					"status": "additional"
				},
				"effectiveDateTime": "2020-09-29T21:35:04.903Z",
				"code": {
					"coding": [
						{
							"system": "http://snomed.info/sct",
							"code": "386661006",
							"display": "Fever"
						}
					]
				},
				"status": "preliminary",
				"valueCodeableConcept": {
					"coding": [
						{
							"system": "https://fhir.loinc.org/ValueSet/LL3044-6",
							"code": "Y",
							"display": "yes"
						}
					]
				},
				"subject": {
					"reference": "Patient/ThinkMD-bee2fb14-194c-4217-ae2d-a7486ce36430"
				},
				"performer": [
					{
						"reference": "Practitioner/8907890"
					}
				],
				"encounter": {
					"reference": "Encounter/7f7e5c6d-83bf-4154-8213-5f45c9d88686"
				}
			},
			"request": {
				"method": "PUT",
				"url": "Observation/fever-7f7e5c6d-83bf-4154-8213-5f45c9d88686"
			}
		},
		{
			"fullUrl": "https://fhir.thinkmd.tech/Observation/foulsmellingurine-7f7e5c6d-83bf-4154-8213-5f45c9d88686",
			"resource": {
				"resourceType": "Observation",
				"id": "foulsmellingurine-7f7e5c6d-83bf-4154-8213-5f45c9d88686",
				"text": {
					"div": "<div class='fhirObservation'><span>Observation</span> - <span>foulsmellingurine-7f7e5c6d-83bf-4154-8213-5f45c9d88686foul_smelling_urine</span> : <span>yes</span></div>",
					"status": "additional"
				},
				"effectiveDateTime": "2020-09-29T21:35:04.903Z",
				"code": {
					"coding": [
						{
							"system": "http://snomed.info/sct",
							"code": "690701000119101",
							"display": "Foul smelling urine"
						}
					]
				},
				"status": "preliminary",
				"valueCodeableConcept": {
					"coding": [
						{
							"system": "https://fhir.loinc.org/ValueSet/LL3044-6",
							"code": "Y",
							"display": "yes"
						}
					]
				},
				"subject": {
					"reference": "Patient/ThinkMD-bee2fb14-194c-4217-ae2d-a7486ce36430"
				},
				"performer": [
					{
						"reference": "Practitioner/8907890"
					}
				],
				"encounter": {
					"reference": "Encounter/7f7e5c6d-83bf-4154-8213-5f45c9d88686"
				}
			},
			"request": {
				"method": "PUT",
				"url": "Observation/foulsmellingurine-7f7e5c6d-83bf-4154-8213-5f45c9d88686"
			}
		},
		{
			"fullUrl": "https://fhir.thinkmd.tech/Observation/tired-7f7e5c6d-83bf-4154-8213-5f45c9d88686",
			"resource": {
				"resourceType": "Observation",
				"id": "tired-7f7e5c6d-83bf-4154-8213-5f45c9d88686",
				"text": {
					"div": "<div class='fhirObservation'><span>Observation</span> - <span>tired-7f7e5c6d-83bf-4154-8213-5f45c9d88686tired</span> : <span>yes</span></div>",
					"status": "additional"
				},
				"effectiveDateTime": "2020-09-29T21:35:04.903Z",
				"code": {
					"coding": [
						{
							"system": "http://snomed.info/sct",
							"code": "224960004",
							"display": "Tired"
						}
					]
				},
				"status": "preliminary",
				"valueCodeableConcept": {
					"coding": [
						{
							"system": "https://fhir.loinc.org/ValueSet/LL3044-6",
							"code": "Y",
							"display": "yes"
						}
					]
				},
				"subject": {
					"reference": "Patient/ThinkMD-bee2fb14-194c-4217-ae2d-a7486ce36430"
				},
				"performer": [
					{
						"reference": "Practitioner/8907890"
					}
				],
				"encounter": {
					"reference": "Encounter/7f7e5c6d-83bf-4154-8213-5f45c9d88686"
				}
			},
			"request": {
				"method": "PUT",
				"url": "Observation/tired-7f7e5c6d-83bf-4154-8213-5f45c9d88686"
			}
		},
		{
			"fullUrl": "https://fhir.thinkmd.tech/Observation/aching-7f7e5c6d-83bf-4154-8213-5f45c9d88686",
			"resource": {
				"resourceType": "Observation",
				"id": "aching-7f7e5c6d-83bf-4154-8213-5f45c9d88686",
				"text": {
					"div": "<div class='fhirObservation'><span>Observation</span> - <span>aching-7f7e5c6d-83bf-4154-8213-5f45c9d88686aching</span> : <span>yes</span></div>",
					"status": "additional"
				},
				"effectiveDateTime": "2020-09-29T21:35:04.903Z",
				"code": {
					"coding": [
						{
							"system": "http://snomed.info/sct",
							"code": "27635008",
							"display": "Aching"
						}
					]
				},
				"status": "preliminary",
				"valueCodeableConcept": {
					"coding": [
						{
							"system": "https://fhir.loinc.org/ValueSet/LL3044-6",
							"code": "Y",
							"display": "yes"
						}
					]
				},
				"subject": {
					"reference": "Patient/ThinkMD-bee2fb14-194c-4217-ae2d-a7486ce36430"
				},
				"performer": [
					{
						"reference": "Practitioner/8907890"
					}
				],
				"encounter": {
					"reference": "Encounter/7f7e5c6d-83bf-4154-8213-5f45c9d88686"
				}
			},
			"request": {
				"method": "PUT",
				"url": "Observation/aching-7f7e5c6d-83bf-4154-8213-5f45c9d88686"
			}
		},
		{
			"fullUrl": "https://fhir.thinkmd.tech/Observation/headache-7f7e5c6d-83bf-4154-8213-5f45c9d88686",
			"resource": {
				"resourceType": "Observation",
				"id": "headache-7f7e5c6d-83bf-4154-8213-5f45c9d88686",
				"text": {
					"div": "<div class='fhirObservation'><span>Observation</span> - <span>headache-7f7e5c6d-83bf-4154-8213-5f45c9d88686headache</span> : <span>yes</span></div>",
					"status": "additional"
				},
				"effectiveDateTime": "2020-09-29T21:35:04.903Z",
				"code": {
					"coding": [
						{
							"system": "http://snomed.info/sct",
							"code": "25064002",
							"display": "Headache"
						}
					]
				},
				"status": "preliminary",
				"valueCodeableConcept": {
					"coding": [
						{
							"system": "https://fhir.loinc.org/ValueSet/LL3044-6",
							"code": "Y",
							"display": "yes"
						}
					]
				},
				"subject": {
					"reference": "Patient/ThinkMD-bee2fb14-194c-4217-ae2d-a7486ce36430"
				},
				"performer": [
					{
						"reference": "Practitioner/8907890"
					}
				],
				"encounter": {
					"reference": "Encounter/7f7e5c6d-83bf-4154-8213-5f45c9d88686"
				}
			},
			"request": {
				"method": "PUT",
				"url": "Observation/headache-7f7e5c6d-83bf-4154-8213-5f45c9d88686"
			}
		},
		{
			"fullUrl": "https://fhir.thinkmd.tech/Observation/traveltomalariazone-7f7e5c6d-83bf-4154-8213-5f45c9d88686",
			"resource": {
				"resourceType": "Observation",
				"id": "traveltomalariazone-7f7e5c6d-83bf-4154-8213-5f45c9d88686",
				"text": {
					"div": "<div class='fhirObservation'><span>Observation</span> - <span>traveltomalariazone-7f7e5c6d-83bf-4154-8213-5f45c9d88686travel_to_malaria_zone</span> : <span>yes</span></div>",
					"status": "additional"
				},
				"effectiveDateTime": "2020-09-29T21:35:04.903Z",
				"code": {
					"coding": [
						{
							"system": "http://hl7.org/fhir/sid/icd-10-cm",
							"code": "Z779",
							"display": "travel to malaria zone"
						}
					]
				},
				"status": "preliminary",
				"valueCodeableConcept": {
					"coding": [
						{
							"system": "https://fhir.loinc.org/ValueSet/LL3044-6",
							"code": "Y",
							"display": "yes"
						}
					]
				},
				"subject": {
					"reference": "Patient/ThinkMD-bee2fb14-194c-4217-ae2d-a7486ce36430"
				},
				"performer": [
					{
						"reference": "Practitioner/8907890"
					}
				],
				"encounter": {
					"reference": "Encounter/7f7e5c6d-83bf-4154-8213-5f45c9d88686"
				}
			},
			"request": {
				"method": "PUT",
				"url": "Observation/traveltomalariazone-7f7e5c6d-83bf-4154-8213-5f45c9d88686"
			}
		},
		{
			"fullUrl": "https://fhir.thinkmd.tech/Observation/wakefulness-7f7e5c6d-83bf-4154-8213-5f45c9d88686",
			"resource": {
				"resourceType": "Observation",
				"id": "wakefulness-7f7e5c6d-83bf-4154-8213-5f45c9d88686",
				"text": {
					"div": "<div class='fhirObservation'><span>Observation</span> - <span>wakefulness-7f7e5c6d-83bf-4154-8213-5f45c9d88686wakefulness</span> : <span>mild</span></div>",
					"status": "additional"
				},
				"effectiveDateTime": "2020-09-29T21:35:04.903Z",
				"code": {
					"coding": [
						{
							"system": "http://snomed.info/sct",
							"code": "27625002",
							"display": "Wakefulness"
						}
					]
				},
				"status": "preliminary",
				"valueCodeableConcept": {
					"coding": [
						{
							"system": "http://snomed.info/sct",
							"display": "mild"
						}
					]
				},
				"subject": {
					"reference": "Patient/ThinkMD-bee2fb14-194c-4217-ae2d-a7486ce36430"
				},
				"performer": [
					{
						"reference": "Practitioner/8907890"
					}
				],
				"encounter": {
					"reference": "Encounter/7f7e5c6d-83bf-4154-8213-5f45c9d88686"
				}
			},
			"request": {
				"method": "PUT",
				"url": "Observation/wakefulness-7f7e5c6d-83bf-4154-8213-5f45c9d88686"
			}
		},
		{
			"fullUrl": "https://fhir.thinkmd.tech/Observation/painwhenmovingneck-7f7e5c6d-83bf-4154-8213-5f45c9d88686",
			"resource": {
				"resourceType": "Observation",
				"id": "painwhenmovingneck-7f7e5c6d-83bf-4154-8213-5f45c9d88686",
				"text": {
					"div": "<div class='fhirObservation'><span>Observation</span> - <span>painwhenmovingneck-7f7e5c6d-83bf-4154-8213-5f45c9d88686pain_when_moving_neck</span> : <span>yes</span></div>",
					"status": "additional"
				},
				"effectiveDateTime": "2020-09-29T21:35:04.903Z",
				"code": {
					"coding": [
						{
							"system": "http://snomed.info/sct",
							"code": "81680005",
							"display": "neck pain"
						}
					]
				},
				"status": "preliminary",
				"valueCodeableConcept": {
					"coding": [
						{
							"system": "https://fhir.loinc.org/ValueSet/LL3044-6",
							"code": "Y",
							"display": "yes"
						}
					]
				},
				"subject": {
					"reference": "Patient/ThinkMD-bee2fb14-194c-4217-ae2d-a7486ce36430"
				},
				"performer": [
					{
						"reference": "Practitioner/8907890"
					}
				],
				"encounter": {
					"reference": "Encounter/7f7e5c6d-83bf-4154-8213-5f45c9d88686"
				}
			},
			"request": {
				"method": "PUT",
				"url": "Observation/painwhenmovingneck-7f7e5c6d-83bf-4154-8213-5f45c9d88686"
			}
		},
		{
			"fullUrl": "https://fhir.thinkmd.tech/Patient/ThinkMD-bee2fb14-194c-4217-ae2d-a7486ce36430",
			"resource": {
				"resourceType": "Patient",
				"id": "ThinkMD-bee2fb14-194c-4217-ae2d-a7486ce36430",
				"text": {
					"status": "generated",
					"div": "<div class='fhirPatient' style='font-size: 16px;font-family: Roboto,sans-serif;line-height: 1.5;box-sizing: inherit;background-repeat: no-repeat;padding: 0;margin: 0;display: block;max-width: 100%;outline:none;text-decoration: none;transition-property: box-shadow,opacity,-webkit-box-shadow;overflow-wrap: break-word;position: relative;white-space: normal;transition: box-shadow.28s cubic-bezier(.4,0,.2,1),-webkit-box-shadow .28s cubic-bezier(.4,0,.2,1);will-change: box-shadow;box-shadow: 0 3px 1px -2px rgba(0,0,0,.2),0 2px 2px 0 rgba(0,0,0,.14),0 1px5px 0 rgba(0,0,0,.12);color: rgba(0,0,0,.87);margin-bottom: 8px!important;background-color: #e1ded4 !important;border-color: #e1ded4 !important;border-radius: 4px;'><div><span style='text-rendering: optimizeLegibility;font-family: Roboto,sans-serif;overflow-wrap: break-word;white-space: normal;font-size: 1.25rem;font-weight: 500;letter-spacing:.0125em;line-height: 2rem;word-break: break-all;color: #424242!important;caret-color: #424242!important;box-sizing: inherit;background-repeat: no-repeat;padding: 0;margin: 0;' >sfgsdfg</span></div><hr style='font-size: 16px;font-family: Roboto,sans-serif;line-height: 1.5;overflow-wrap: break-word;white-space: normal;color: rgba(0,0,0,.87);box-sizing: inherit;background-repeat: no-repeat;padding: 0;margin: 0;display: block;max-width: 100%;height: 0;max-height: 0;border: solid;border-width: thin 0 0 0;transition: inherit;border-color:rgba(0,0,0,.12);margin-right: 4px!important;margin-left: 4px!important;'></hr><div><span style='text-rendering: optimizeLegibility;font-family: Roboto,sans-serif;overflow-wrap: break-word;white-space: normal;font-size: .875rem;font-weight: 400;line-height: 1.375rem;letter-spacing: .0071428571em;color: rgba(0,0,0,.6);box-sizing: inherit;background-repeat: no-repeat;padding: 0;margin: 0;'>Patient: 4354325</span></div></div>"
				},
				"active": true,
				"gender": "female",
				"identifier": [
					{
						"system": "urn:oid:2.16.840.1.113883.19.5",
						"type": {
							"coding": [
								{
									"code": "MR",
									"display": null,
									"system": "http://terminology.hl7.org/CodeSystem/v2-0203"
								}
							]
						},
						"use": "usual",
						"value": "4354325"
					}
				],
				"name": [
					{
						"text": "sfgsdfg"
					}
				],
				"communication": [
					{
						"language": {
							"coding": [
								{
									"system": "urn:ietf:bcp:47",
									"code": "en-US"
								}
							],
							"text": "en-US"
						}
					}
				]
			},
			"request": {
				"method": "PUT",
				"url": "Patient/ThinkMD-bee2fb14-194c-4217-ae2d-a7486ce36430"
			}
		},
		{
			"fullUrl": "https://fhir.thinkmd.tech/Practitioner/8907890",
			"resource": {
				"resourceType": "Practitioner",
				"id": "8907890",
				"text": {
					"status": "generated",
					"div": "<div class='fhirPractitioner' style='font-size: 16px;font-family: Roboto,sans-serif;line-height: 1.5;box-sizing: inherit;background-repeat: no-repeat;padding: 0;margin: 0;display: block;max-width: 100%;outline:none;text-decoration: none;transition-property: box-shadow,opacity,-webkit-box-shadow;overflow-wrap: break-word;position: relative;white-space: normal;transition: box-shadow.28s cubic-bezier(.4,0,.2,1),-webkit-box-shadow .28s cubic-bezier(.4,0,.2,1);will-change: box-shadow;box-shadow: 0 3px 1px -2px rgba(0,0,0,.2),0 2px 2px 0 rgba(0,0,0,.14),0 1px5px 0 rgba(0,0,0,.12);color: rgba(0,0,0,.87);margin-bottom: 8px!important;background-color: #e1ded4 !important;border-color: #e1ded4 !important;border-radius: 4px;'><div><span style='text-rendering: optimizeLegibility;font-family: Roboto,sans-serif;overflow-wrap: break-word;white-space: normal;font-size: 1.25rem;font-weight: 500;letter-spacing:.0125em;line-height: 2rem;word-break: break-all;color: #424242!important;caret-color: #424242!important;box-sizing: inherit;background-repeat: no-repeat;padding: 0;margin: 0;' ></span></div><hr style='font-size: 16px;font-family: Roboto,sans-serif;line-height: 1.5;overflow-wrap: break-word;white-space: normal;color: rgba(0,0,0,.87);box-sizing: inherit;background-repeat: no-repeat;padding: 0;margin: 0;display: block;max-width: 100%;height: 0;max-height: 0;border: solid;border-width: thin 0 0 0;transition: inherit;border-color:rgba(0,0,0,.12);margin-right: 4px!important;margin-left: 4px!important;'></hr><div><span style='text-rendering: optimizeLegibility;font-family: Roboto,sans-serif;overflow-wrap: break-word;white-space: normal;font-size: .875rem;font-weight: 400;line-height: 1.375rem;letter-spacing: .0071428571em;color: rgba(0,0,0,.6);box-sizing: inherit;background-repeat: no-repeat;padding: 0;margin: 0;'>Practitioner: 8907890</span></div></div>"
				},
				"active": true,
				"identifier": [
					{
						"value": "8907890"
					}
				],
				"name": []
			},
			"request": {
				"method": "PUT",
				"url": "Practitioner/8907890"
			}
		},
		{
			"fullUrl": "https://fhir.thinkmd.tech/Location/25a0636e-766f-48e7-a09f-e772c5f31d0d",
			"resource": {
				"resourceType": "Location",
				"description": "Device-collected geo: up_to_date",
				"mode": "instance",
				"position": {
					"latitude": 43.220730599999999,
					"longitude": -71.72104999999999
				}
			},
			"request": {
				"method": "PUT",
				"url": "Location/25a0636e-766f-48e7-a09f-e772c5f31d0d"
			}
		},
		{
			"fullUrl": "https://fhir.thinkmd.tech/Encounter/7f7e5c6d-83bf-4154-8213-5f45c9d88686",
			"resource": {
				"resourceType": "Encounter",
				"id": "7f7e5c6d-83bf-4154-8213-5f45c9d88686",
				"status": "arrived",
				"text": {
					"div": "<div class='fhirEncounter'><span>Encounter</span></div>",
					"status": "additional"
				},
				"class": {
					"system": "http://terminology.hl7.org/CodeSystem/v3-ActCode",
					"code": "HH",
					"display": "home health"
				},
				"subject": {
					"reference": "Patient/ThinkMD-bee2fb14-194c-4217-ae2d-a7486ce36430"
				}
			},
			"request": {
				"method": "PUT",
				"url": "Encounter/7f7e5c6d-83bf-4154-8213-5f45c9d88686"
			}
		},
		{
			"fullUrl": "https://fhir.thinkmd.tech/CarePlan/malaria-7f7e5c6d-83bf-4154-8213-5f45c9d88686",
			"resource": {
				"resourceType": "CarePlan",
				"id": "malaria-7f7e5c6d-83bf-4154-8213-5f45c9d88686",
				"text": {
					"status": "generated",
					"div": "<div><p><b>Generated Narrative with Details</b></p><p><b>status</b>: active</p><p><b>intent</b>: order</p>  <p><b>medication</b>: . Generated Summary:  <span>(Details : http://hl7.org/fhir/sid/ndc code ', given as '')</span></p><p><b>subject</b>:   <a></a></p><p><b>reasonCode</b>:  <span>(Details : {SNOMED CT code  = })</span></p></div>"
				},
				"status": "active",
				"intent": "order",
				"addresses": [
					{
						"reference": "Condition/malaria-7f7e5c6d-83bf-4154-8213-5f45c9d88686",
						"display": "Reason to admister this CarePlan"
					}
				],
				"activity": [
					{
						"detail": {
							"kind": "MedicationRequest",
							"code": {
								"coding": [
									{
										"display": "coartem_or_artesunate_plus_amodiaquine"
									}
								]
							},
							"status": "in-progress"
						}
					},
					{
						"detail": {
							"kind": "MedicationRequest",
							"code": {
								"coding": [
									{
										"display": "amoxicillin"
									}
								]
							},
							"status": "in-progress"
						}
					},
					{
						"detail": {
							"kind": "Task",
							"code": {
								"coding": [
									{
										"display": "perform_malaria_test"
									}
								]
							},
							"status": "in-progress"
						}
					},
					{
						"detail": {
							"kind": "Task",
							"code": {
								"coding": [
									{
										"display": "refer"
									}
								]
							},
							"status": "in-progress"
						}
					},
					{
						"detail": {
							"kind": "Task",
							"code": {
								"coding": [
									{
										"display": "ors_sugar_water"
									}
								]
							},
							"status": "in-progress"
						}
					}
				],
				"encounter": {
					"reference": "Encounter/7f7e5c6d-83bf-4154-8213-5f45c9d88686"
				},
				"subject": {
					"reference": "Patient/ThinkMD-bee2fb14-194c-4217-ae2d-a7486ce36430"
				}
			},
			"request": {
				"method": "PUT",
				"url": "CarePlan/malaria-7f7e5c6d-83bf-4154-8213-5f45c9d88686"
			}
		}
	]
}